"Time (s)","Linear Acceleration x (m/s^2)","Linear Acceleration y (m/s^2)","Linear Acceleration z (m/s^2)"
4.442901600E-2,0.000000000E0,0.000000000E0,0.000000000E0
4.945932900E-2,-3.730463982E-2,7.362651825E-2,2.449989319E-2
5.448964100E-2,-3.479146957E-2,8.450889587E-2,-9.278917313E-2
5.950787000E-2,-1.780211926E-2,1.209092140E-1,-2.551622391E-1
6.453818300E-2,1.556348801E-2,1.486554146E-1,-4.023728371E-1
6.956849500E-2,7.752382755E-2,1.129636765E-1,-6.027216911E-1
7.459875600E-2,9.086155891E-2,5.284452438E-2,-9.788289070E-1
7.962906800E-2,1.540112495E-2,1.507377625E-2,-1.279387951E0
8.465938100E-2,-8.665549755E-2,3.942298889E-2,-1.512024879E0
8.969469300E-2,-1.207731962E-1,7.380008698E-2,-1.681708336E0
9.472505800E-2,-1.527799368E-1,-2.941608429E-2,-1.764372826E0
9.975531800E-2,-1.567916870E-1,-9.981203079E-2,-1.821144104E0
1.048092250E-1,-1.920050383E-1,-1.162981987E-1,-1.766428947E0
1.098395370E-1,-2.073835135E-1,-4.750347137E-2,-1.600845814E0
1.148772980E-1,-2.111703157E-1,-6.372928619E-2,-1.480748177E0
1.199076100E-1,-2.485917807E-1,-1.620388031E-2,-1.270582676E0
1.249379230E-1,-2.093933821E-1,3.051471710E-2,-1.035763741E0
1.299682350E-1,-1.242926121E-1,1.990318298E-3,-7.592344284E-1
1.349985480E-1,5.447983742E-3,-5.530118942E-2,-5.355663300E-1
1.403492770E-1,1.578131914E-1,-1.847872734E-1,-4.276909828E-1
1.453795370E-1,2.472209930E-1,-2.777247429E-1,-8.845520020E-2
1.504098500E-1,3.418633938E-1,-3.008213043E-1,2.727470398E-1
1.554401620E-1,3.818579912E-1,-3.882188797E-1,6.134467125E-1
1.604704750E-1,4.501203299E-1,-4.396414757E-1,9.505896568E-1
1.655007870E-1,4.746289253E-1,-4.044771194E-1,1.175875187E0
1.702013600E-1,4.464523792E-1,-3.477025032E-1,1.381733418E0
1.752316730E-1,4.325104952E-1,-2.612695694E-1,1.522954464E0
1.802619850E-1,3.697636127E-1,-1.842947006E-1,1.508780956E0
1.852922450E-1,3.489445448E-1,-1.697134972E-1,1.330462933E0
1.903225580E-1,2.890141010E-1,-1.062579155E-1,1.073338032E0
1.953529230E-1,1.880400181E-1,-8.932113647E-3,6.807370186E-1
2.007068290E-1,5.755591393E-2,8.710241318E-2,2.573065758E-1
2.057371410E-1,-8.647179604E-2,1.739096642E-1,-1.095490456E-1
2.107674020E-1,-2.681035995E-1,2.314996719E-1,-4.252419472E-1
2.157977140E-1,-4.219949245E-1,2.894496918E-1,-6.996526718E-1
2.208280270E-1,-4.987462759E-1,2.903552055E-1,-9.586200714E-1
2.258583390E-1,-5.634591579E-1,3.041310310E-1,-1.236424446E0
2.305487040E-1,-6.094589233E-1,2.891817093E-1,-1.479618549E0
2.355790680E-1,-6.412367821E-1,2.973017693E-1,-1.689893723E0
2.406093290E-1,-6.921393871E-1,3.076896667E-1,-1.798711300E0
2.456396410E-1,-7.195707560E-1,3.393754959E-1,-1.795034409E0
2.506699020E-1,-6.494518518E-1,3.546056747E-1,-1.719089508E0
2.557002660E-1,-4.789582491E-1,2.999610901E-1,-1.602745533E0
2.610761520E-1,-2.223010063E-1,1.377878189E-1,-1.314446449E0
2.661064120E-1,5.564057827E-2,-5.626249313E-2,-1.018464565E0
2.711367770E-1,3.502057791E-1,-1.739110947E-1,-8.133335114E-1
2.761670890E-1,5.877291560E-1,-2.995390892E-1,-6.138300896E-1
2.811973500E-1,7.450745702E-1,-3.799200058E-1,-3.809752464E-1
2.862276620E-1,8.456950188E-1,-4.237070084E-1,-1.097569466E-1
2.912420370E-1,9.052310586E-1,-4.225921631E-1,6.584215164E-2
2.962723500E-1,9.243907332E-1,-4.128651619E-1,1.597046852E-1
3.013026620E-1,8.809210062E-1,-3.717169762E-1,1.763849258E-1
3.063329750E-1,8.330132961E-1,-3.305120468E-1,2.280488014E-1
3.113632350E-1,7.551103830E-1,-2.402296066E-1,2.579884529E-1
3.163936000E-1,6.757568121E-1,-1.819081306E-1,3.326106071E-1
3.214554750E-1,5.634030700E-1,-1.101241112E-1,3.402934074E-1
3.264857350E-1,4.862669706E-1,-5.339002609E-2,2.845401764E-1
3.315161000E-1,3.910786808E-1,1.461887360E-2,2.320690155E-1
3.365463600E-1,2.207587212E-1,4.690742493E-2,1.353263855E-1
3.415766730E-1,2.751189470E-2,1.503896713E-1,8.729934692E-3
3.466069850E-1,-1.511547267E-1,2.771158218E-1,-9.110212326E-2
3.512942250E-1,-3.996132612E-1,4.037618637E-1,-2.854051590E-1
3.563245370E-1,-5.781939030E-1,4.529585838E-1,-4.319005013E-1
3.613548500E-1,-7.110708356E-1,4.478178024E-1,-5.155725479E-1
3.663851100E-1,-7.461481094E-1,3.426389694E-1,-5.995225906E-1
3.714154750E-1,-8.415111303E-1,2.262830734E-1,-8.891787529E-1
3.764457870E-1,-8.306803703E-1,1.062765121E-1,-1.011436462E0
3.814498500E-1,-7.034155726E-1,-8.343076706E-2,-8.862018585E-1
3.864801620E-1,-5.365291238E-1,-3.304109573E-1,-8.754286766E-1
3.915104750E-1,-3.665412366E-1,-4.196643829E-1,-7.712597847E-1
3.965407870E-1,-2.065359950E-1,-4.649100304E-1,-5.176997185E-1
4.015711000E-1,-1.362756640E-1,-4.011764526E-1,-1.869568825E-1
4.066013600E-1,-4.393485188E-2,-3.269667625E-1,7.610130310E-2
4.116289120E-1,6.449207664E-3,-2.733201981E-1,1.994733810E-1
4.166592250E-1,-3.594899550E-2,-1.668391228E-1,3.081645966E-1
4.216895370E-1,-1.698569059E-1,1.691055298E-1,4.804191589E-1
4.267197980E-1,-2.317795455E-1,1.858263016E-1,3.556938171E-1
4.317501100E-1,-2.900131941E-1,1.760187149E-1,2.332367897E-1
4.367804230E-1,-3.151867390E-1,3.034811020E-1,2.119941711E-1
4.418155790E-1,-3.365037739E-1,4.533023834E-1,1.673293114E-1
4.468458390E-1,-3.212619424E-1,5.214209557E-1,7.082605362E-2
4.518762040E-1,-3.123587966E-1,5.472526550E-1,-8.223724365E-2
4.569064640E-1,-2.904203832E-1,5.292687416E-1,-3.247261047E-1
4.619367770E-1,-2.739949822E-1,5.085501671E-1,-6.418299675E-1
4.669670890E-1,-2.221645415E-1,3.599910736E-1,-9.361081123E-1
4.719943290E-1,-1.472557038E-1,1.962995529E-1,-1.224478722E0
4.770246410E-1,5.420893431E-2,-1.527295113E-1,-1.379371643E0
4.820549020E-1,1.976422668E-1,-5.122041702E-1,-1.551478863E0
4.870852140E-1,2.670595646E-1,-7.682471275E-1,-1.721835613E0
4.921155270E-1,2.091314495E-1,-7.612719536E-1,-1.757537842E0
4.971458390E-1,1.797302961E-1,-7.620906830E-1,-1.714362621E0
5.021845890E-1,2.238065600E-1,-7.164821625E-1,-1.531172276E0
5.072149020E-1,1.274744868E-1,-5.520510674E-1,-1.287028313E0
5.122452140E-1,4.416900873E-2,-3.365907669E-1,-1.043948174E0
5.172754750E-1,-2.677303553E-2,-1.181421280E-1,-7.281961441E-1
5.223057870E-1,-8.852493763E-2,9.834623337E-2,-4.349966049E-1
5.273361000E-1,-1.580863893E-1,2.678723335E-1,-1.640038490E-1
5.323556830E-1,-1.929954886E-1,3.981132507E-1,-4.061841965E-2
5.373859950E-1,-2.527999282E-1,5.371727943E-1,5.187988281E-3
5.424163080E-1,-2.468366921E-1,6.660985947E-1,1.448521614E-1
5.474465680E-1,-1.898919046E-1,7.852668762E-1,1.732592583E-1
5.524768810E-1,-1.860516667E-1,8.382720947E-1,7.683372498E-2
5.575071930E-1,-2.886114120E-1,8.495745659E-1,-6.506919861E-2
5.625555790E-1,-2.474702597E-1,1.019587040E0,-2.171068192E-1
5.675858910E-1,-6.804287434E-2,8.843016624E-1,-3.105554581E-1
5.726162040E-1,1.848020554E-1,7.191891670E-1,-3.884153366E-1
5.776465160E-1,3.700594306E-1,5.221762657E-1,-4.863910675E-1
5.826767770E-1,5.212331414E-1,2.434282303E-1,-6.775469780E-1
5.877071410E-1,7.834054828E-1,-3.122234344E-2,-6.236610413E-1
5.927216730E-1,9.552625418E-1,-2.834463120E-1,-5.968990326E-1
5.977519850E-1,1.039544582E0,-5.657134056E-1,-6.728935242E-1
6.027822450E-1,1.053771734E0,-7.670364380E-1,-6.576881409E-1
6.078125580E-1,1.012636781E0,-8.601069450E-1,-4.709563255E-1
6.128428700E-1,9.515235424E-1,-8.391690254E-1,-1.968855858E-1
6.178731830E-1,8.010016680E-1,-7.983946800E-1,1.215696335E-1
6.229097450E-1,5.868810415E-1,-7.333116531E-1,4.723234177E-1
6.279400580E-1,4.130027294E-1,-6.565341949E-1,8.223552704E-1
6.329703700E-1,2.449665368E-1,-5.994229317E-1,1.176760674E0
6.380006310E-1,2.030608058E-2,-5.241746902E-1,1.395647526E0
6.430309430E-1,-2.059906125E-1,-4.834871292E-1,1.523074150E0
6.480612560E-1,-3.625388145E-1,-3.942599297E-1,1.562348843E0
6.530947450E-1,-4.876009226E-1,-3.020815849E-1,1.518883228E0
6.581250580E-1,-6.235693693E-1,-1.785550117E-1,1.343410969E0
6.631553700E-1,-7.362964749E-1,-7.101964951E-2,1.124464989E0
6.681856310E-1,-7.895628810E-1,2.342319489E-2,8.928837776E-1
6.732159430E-1,-7.997323275E-1,8.375644684E-2,6.769948006E-1
6.782462560E-1,-8.192001581E-1,9.647607803E-2,5.689411163E-1
6.832704750E-1,-7.456154823E-1,1.003546715E-1,4.606189728E-1
6.883007870E-1,-6.985968351E-1,2.447938919E-2,4.040555954E-1
6.933311000E-1,-6.118236780E-1,-2.834844589E-2,4.464082718E-1
6.983614120E-1,-5.382310152E-1,-1.485710144E-1,4.252243042E-1
7.033917250E-1,-5.447425842E-1,-2.763161659E-1,4.432592392E-1
7.084220370E-1,-5.193867683E-1,-3.567843437E-1,4.407320023E-1
7.134604230E-1,-5.600667596E-1,-3.547067642E-1,4.154443741E-1
7.184907350E-1,-6.089607477E-1,-3.896932602E-1,3.866472244E-1
7.235210480E-1,-6.159846187E-1,-4.165110588E-1,4.187183380E-1
7.285513080E-1,-6.052390337E-1,-4.589662552E-1,4.660053253E-1
7.335816200E-1,-5.937173367E-1,-4.858679771E-1,5.021286011E-1
7.386119330E-1,-5.936009884E-1,-4.780101776E-1,4.675140381E-1
7.436386000E-1,-5.972524881E-1,-4.733514786E-1,4.408912659E-1
7.486689120E-1,-5.568676591E-1,-4.120693207E-1,3.244352341E-1
7.536992250E-1,-5.197703838E-1,-3.608517647E-1,1.708602905E-1
7.587294850E-1,-4.991664290E-1,-3.358464241E-1,8.235359192E-2
7.637597980E-1,-4.490768015E-1,-3.127818108E-1,1.301383972E-2
7.687901100E-1,-4.093110859E-1,-3.439912796E-1,-5.873680115E-2
7.738208910E-1,-3.889912367E-1,-3.478350639E-1,-1.831421852E-1
7.788512040E-1,-3.380608261E-1,-3.217806816E-1,-1.792864799E-1
7.838815160E-1,-3.116021156E-1,-3.206348419E-1,-1.908740997E-1
7.889118290E-1,-2.952982187E-1,-3.084120750E-1,-2.297849655E-1
7.939421410E-1,-2.676133215E-1,-2.992000580E-1,-2.531962395E-1
7.989724540E-1,-2.381457835E-1,-2.261772156E-1,-3.089194298E-1
8.040002660E-1,-2.406007946E-1,-2.089147568E-1,-3.252086639E-1
8.090305790E-1,-2.250461876E-1,-1.732993126E-1,-3.070406914E-1
8.140608910E-1,-2.204413861E-1,-1.290531158E-1,-3.116688728E-1
8.190911520E-1,-2.009526789E-1,-1.241664886E-1,-2.339568138E-1
8.241214640E-1,-1.885434687E-1,-1.113429070E-1,-1.358828545E-1
8.291517770E-1,-1.528113484E-1,-7.902956009E-2,-8.874034882E-2
8.341791200E-1,-1.226350814E-1,-4.215764999E-2,-9.658241272E-2
8.392094330E-1,-7.657071948E-2,-8.182525635E-3,-5.174541473E-2
8.442397450E-1,-2.800062299E-3,-1.553058624E-2,-3.048610687E-2
8.492700060E-1,3.676301241E-2,-9.545803070E-3,-1.470565796E-3
8.543003180E-1,7.817716897E-2,-1.667976379E-2,9.181022644E-3
8.593306310E-1,1.424944848E-1,-2.971315384E-2,-4.602909088E-2
8.643680790E-1,2.127562612E-1,-6.756210327E-2,-4.297065735E-2
8.693983910E-1,2.294327468E-1,-3.477907181E-2,-1.058549881E-1
8.744287040E-1,2.432300597E-1,-2.922630310E-2,-1.868104935E-1
8.794589640E-1,3.234173656E-1,-7.675695419E-2,-2.453861237E-1
8.844892770E-1,3.673678041E-1,-8.150053024E-2,-2.914614677E-1
8.895195890E-1,3.920535445E-1,-7.700681686E-2,-3.727731705E-1
8.945468290E-1,4.668190479E-1,-1.299223900E-1,-4.772782326E-1
8.995771410E-1,5.058482885E-1,-1.705808640E-1,-5.073943138E-1
9.046074540E-1,5.090119243E-1,-1.845483780E-1,-4.779887199E-1
9.096377140E-1,5.457767844E-1,-1.649675369E-1,-5.250701904E-1
9.146680270E-1,5.658761263E-1,-1.475358009E-1,-6.030964851E-1
9.196983390E-1,5.908852220E-1,-1.415877342E-1,-6.262717247E-1
9.247306310E-1,6.160905957E-1,-1.468811035E-1,-6.807770729E-1
9.297609430E-1,6.965677738E-1,-1.372017860E-1,-7.211494446E-1
9.347912560E-1,7.393208742E-1,-1.459393501E-1,-6.903324127E-1
9.398215160E-1,7.825920582E-1,-1.399059296E-1,-6.719121933E-1
9.448518290E-1,8.524708748E-1,-1.431450844E-1,-6.323695183E-1
9.498821410E-1,8.701852560E-1,-1.461219788E-1,-5.622539520E-1
9.548993810E-1,9.025152922E-1,-1.417651176E-1,-5.426726341E-1
9.599296930E-1,8.944537044E-1,-7.319116592E-2,-4.469079971E-1
9.649599540E-1,8.603278399E-1,-4.087448120E-2,-4.039731026E-1
9.699902660E-1,8.073191047E-1,1.005029678E-2,-3.991975784E-1
9.750205790E-1,6.921668053E-1,3.656053543E-2,-3.322720528E-1
9.800508910E-1,6.743087769E-1,1.150846481E-1,-2.869443893E-1
9.851199020E-1,6.407685876E-1,1.906285286E-1,-3.084192276E-1
9.901502140E-1,6.273245215E-1,1.986007690E-1,-3.389773369E-1
9.951805790E-1,7.031047940E-1,2.276401520E-1,-4.120159149E-1
1.000210839E0,7.508375645E-1,1.847496033E-1,-4.439430237E-1
1.005241152E0,7.829493284E-1,1.870193481E-1,-4.992923737E-1
1.010271464E0,8.285121322E-1,2.249436378E-1,-5.805048943E-1
1.015297402E0,8.185985088E-1,2.527904510E-1,-6.539168358E-1
1.020327714E0,8.038753867E-1,3.256139755E-1,-6.958699226E-1
1.025358027E0,8.463315368E-1,3.239307404E-1,-6.969304085E-1
1.030388287E0,8.547738194E-1,3.195753098E-1,-6.596570015E-1
1.035418652E0,8.598613143E-1,3.796544075E-1,-6.416640282E-1
1.040448964E0,8.353047967E-1,4.372878075E-1,-6.119780540E-1
1.045459485E0,8.812782168E-1,4.946322441E-1,-5.681114197E-1
1.050489798E0,8.969005942E-1,4.825792313E-1,-4.696049690E-1
1.055520162E0,9.630880356E-1,5.564694405E-1,-3.715758324E-1
1.060550423E0,1.026772857E0,5.655393600E-1,-3.310956955E-1
1.065580735E0,1.037875772E0,6.197133064E-1,-2.930107117E-1
1.070611048E0,1.051523924E0,6.854028702E-1,-3.216643333E-1
1.075665162E0,1.070510626E0,7.315502167E-1,-3.523588181E-1
1.080695475E0,1.138479710E0,7.700648308E-1,-4.088745117E-1
1.085725787E0,1.150782108E0,8.272337914E-1,-4.386692047E-1
1.090756048E0,1.081666231E0,1.046408176E0,-5.684871674E-1
1.095786412E0,9.750025272E-1,1.140933990E0,-8.123149872E-1
1.100816725E0,1.077485561E0,1.068815231E0,-7.216644287E-1
1.105844798E0,1.432209253E0,8.264541626E-1,-4.413490295E-1
1.110875110E0,1.680588484E0,5.748867989E-1,-3.157734871E-1
1.115905423E0,1.711091757E0,5.025401115E-1,-4.061961174E-1
1.120935683E0,1.673656702E0,4.891061783E-1,-4.492173195E-1
1.125965995E0,1.567296386E0,5.152702332E-1,-6.001186371E-1
1.130996308E0,1.519801855E0,4.805369377E-1,-6.723904610E-1
1.136029902E0,1.563878775E0,4.352917671E-1,-4.613204002E-1
1.141060214E0,1.545350075E0,3.128404617E-1,-3.424978256E-1
1.146090527E0,1.487861276E0,2.899074554E-1,-2.963132858E-1
1.151120839E0,1.382355452E0,3.658270836E-1,-3.556966782E-1
1.156151152E0,1.279793739E0,4.352674484E-1,-4.701652527E-1
1.161181464E0,1.090159416E0,5.074496269E-1,-5.343809128E-1
1.166157558E0,9.413191676E-1,6.465969086E-1,-5.843524933E-1
1.171187870E0,9.329469800E-1,6.858954430E-1,-5.226058960E-1
1.176218183E0,9.969258904E-1,6.662354469E-1,-4.305901527E-1
1.181248495E0,9.677518010E-1,7.168631554E-1,-4.110460281E-1
1.186278808E0,9.985738993E-1,7.588715553E-1,-4.374804497E-1
1.191309120E0,9.897560477E-1,8.372035027E-1,-4.546675682E-1
1.196371256E0,1.010890484E0,9.540739059E-1,-3.219451904E-1
1.201401568E0,1.064055204E0,1.037037373E0,-2.996730804E-2
1.206431829E0,1.050273895E0,1.160008430E0,1.083421707E-1
1.211462193E0,9.793034792E-1,1.274919033E0,1.486291885E-1
1.216492506E0,1.044519544E0,1.336101055E0,2.871294022E-1
1.221522766E0,1.111433148E0,1.343334198E0,3.042736053E-1
1.226543443E0,1.099667430E0,1.358518124E0,2.937040329E-1
1.231573756E0,1.136195183E0,1.405513287E0,2.411613464E-1
1.236604068E0,1.109283805E0,1.486313343E0,2.208261490E-1
1.241634381E0,1.288218379E0,1.479262352E0,3.446474075E-1
1.246664693E0,1.334449768E0,1.406571388E0,2.684564590E-1
1.251695006E0,1.315689683E0,1.378551960E0,2.457313538E-1
1.256731204E0,1.273256302E0,1.516622066E0,1.569356918E-1
1.261761516E0,1.203040600E0,1.708093643E0,1.524848938E-1
1.266791777E0,1.374527693E0,1.695269585E0,2.796707153E-1
1.271822141E0,1.385033488E0,1.691176414E0,1.301965714E-1
1.276852454E0,1.372422695E0,1.648269176E0,-6.424903870E-3
1.281882714E0,1.390431881E0,1.607241154E0,-1.041641235E-1
1.286924433E0,1.399310470E0,1.618012428E0,-2.371892929E-1
1.291954745E0,1.420760393E0,1.596826077E0,-2.932424545E-1
1.296985058E0,1.387998939E0,1.541225433E0,-3.536663055E-1
1.302015370E0,1.203854442E0,1.537200451E0,-4.996147156E-1
1.307045683E0,1.388744354E0,1.438982487E0,-3.775730133E-1
1.312075995E0,1.440896153E0,1.242222786E0,-4.393482208E-1
1.317095370E0,1.365325212E0,1.126443386E0,-5.625896454E-1
1.322125683E0,1.406412601E0,1.072099209E0,-5.824146271E-1
1.327155995E0,1.344217062E0,1.069096565E0,-6.637010574E-1
1.332186308E0,1.245841384E0,1.090801716E0,-7.297310829E-1
1.337216620E0,1.144849777E0,1.048902988E0,-7.829847336E-1
1.342246881E0,1.086247206E0,1.024778843E0,-7.542567253E-1
1.347292245E0,9.923557043E-1,1.030495644E0,-6.557369232E-1
1.352322558E0,9.146240950E-1,1.085343838E0,-6.165618896E-1
1.357352870E0,8.076606989E-1,1.105603218E0,-6.842260361E-1
1.362383183E0,7.339941263E-1,1.189297199E0,-7.414689064E-1
1.367413495E0,6.559079885E-1,1.181146145E0,-8.385643959E-1
1.372443808E0,6.457260847E-1,1.129143715E0,-8.894934654E-1
1.377463287E0,6.511560678E-1,1.043179989E0,-9.852700233E-1
1.382493548E0,6.056494713E-1,9.593191147E-1,-1.113909721E0
1.387523912E0,4.999178648E-1,8.540558815E-1,-1.184810162E0
1.392554225E0,4.556664228E-1,8.446426392E-1,-1.150547981E0
1.397584537E0,3.599107265E-1,8.188028336E-1,-1.171482086E0
1.402614798E0,2.431206703E-1,8.102912903E-1,-1.147237778E0
1.407631933E0,1.327291727E-1,7.868142128E-1,-1.118063927E0
1.412662245E0,7.457548380E-2,7.524280548E-1,-1.184420109E0
1.417692558E0,1.594805717E-2,7.122440338E-1,-1.248281479E0
1.422722870E0,-6.445246935E-2,6.521954536E-1,-1.243253708E0
1.427753183E0,-5.516314507E-2,6.342024803E-1,-1.234015942E0
1.432783443E0,-6.662583351E-2,6.390886307E-1,-1.242061138E0
1.437825579E0,-8.935087919E-2,6.808900833E-1,-1.226839066E0
1.442855891E0,-8.353620768E-2,7.153820992E-1,-1.277875423E0
1.447886204E0,-2.494275570E-2,7.633790970E-1,-1.288942337E0
1.452916516E0,-6.388658285E-2,8.081803322E-1,-1.195800781E0
1.457946829E0,-5.221349001E-2,8.594546318E-1,-1.070478439E0
1.462977089E0,-1.170700788E-2,9.003562927E-1,-9.750752449E-1
1.467998756E0,7.566750050E-3,9.261450768E-1,-8.211741447E-1
1.473029068E0,6.321114302E-2,9.960904121E-1,-6.445307732E-1
1.478059381E0,1.312924623E-1,1.045569420E0,-5.120511055E-1
1.483089693E0,1.478800774E-1,1.114982605E0,-4.234771729E-1
1.488120006E0,1.523495913E-1,1.127547264E0,-3.690071106E-1
1.493150266E0,1.813009381E-1,1.130836964E0,-2.242422104E-1
1.498206360E0,2.232092023E-1,1.098510265E0,-2.288722992E-2
1.503236673E0,1.924482584E-1,1.092189789E0,8.715629578E-2
1.508266985E0,1.397665739E-1,1.034979820E0,1.493759155E-1
1.513297298E0,5.847436190E-2,1.017519951E0,2.022438049E-1
1.518327610E0,-2.956354618E-2,1.013120174E0,3.247194290E-1
1.523357923E0,-1.437255740E-1,1.004721642E0,4.857406616E-1
1.528366620E0,-2.155451179E-1,1.054068565E0,5.828056335E-1
1.533396933E0,-3.504774272E-1,1.082068443E0,6.520338058E-1
1.538427245E0,-4.436620176E-1,1.134325504E0,6.480998993E-1
1.543457558E0,-4.835807681E-1,1.138957024E0,6.955308914E-1
1.548487870E0,-5.421190262E-1,1.167504311E0,7.823667526E-1
1.553518131E0,-5.768144131E-1,1.170070648E0,8.415002823E-1
1.558555787E0,-6.097572446E-1,1.249246597E0,8.827133179E-1
1.563586100E0,-6.460105181E-1,1.313995838E0,8.918027878E-1
1.568616412E0,-6.718328595E-1,1.362100601E0,9.763002396E-1
1.573646725E0,-6.616718173E-1,1.400954247E0,1.054737091E0
1.578677037E0,-6.375367045E-1,1.399750710E0,1.124662399E0
1.583707298E0,-6.023043990E-1,1.342219353E0,1.147760391E0
1.588759537E0,-5.893009901E-1,1.281414032E0,1.138300896E0
1.593789850E0,-5.670971274E-1,1.186958790E0,1.091203690E0
1.598820162E0,-5.469097495E-1,1.111761570E0,1.063681602E0
1.603850475E0,-5.186359286E-1,1.044262409E0,1.136548042E0
1.608880787E0,-5.035284758E-1,1.034827232E0,1.225736618E0
1.613911100E0,-5.034557581E-1,1.071827888E0,1.206681252E0
1.618941985E0,-5.393112898E-1,1.105448723E0,1.191612244E0
1.623972298E0,-5.694392920E-1,1.107381821E0,1.182608604E0
1.629002610E0,-5.763838887E-1,1.063504219E0,1.308453560E0
1.634032923E0,-5.337883830E-1,1.019291401E0,1.497082710E0
1.639063235E0,-4.920693040E-1,9.291868210E-1,1.643342972E0
1.644093548E0,-4.199746847E-1,8.478469849E-1,1.707007408E0
1.649089954E0,-3.577744663E-1,7.723836899E-1,1.772171021E0
1.654120266E0,-2.815072536E-1,6.357059479E-1,1.841342926E0
1.659150579E0,-2.128569782E-1,5.401320457E-1,1.965024948E0
1.664180891E0,-1.619108319E-1,4.089775085E-1,2.081093788E0
1.669211204E0,-1.362633109E-1,2.924036980E-1,2.227888107E0
1.674241464E0,-1.435896158E-1,2.046489716E-1,2.274046898E0
1.679275787E0,-1.768880785E-1,9.046649933E-2,2.203330040E0
1.684306100E0,-2.384316623E-1,-2.386617661E-2,2.152260780E0
1.689336412E0,-2.685705721E-1,-1.073899269E-1,2.170998573E0
1.694366725E0,-3.105573952E-1,-2.080173492E-1,2.204449654E0
1.699396985E0,-3.763884902E-1,-3.135280609E-1,2.197502136E0
1.704427298E0,-4.663518071E-1,-4.332709312E-1,2.183620453E0
1.709525579E0,-4.873746634E-1,-5.028810501E-1,2.141438484E0
1.714555891E0,-5.303769112E-1,-6.058664322E-1,1.989685059E0
1.719586204E0,-5.826870799E-1,-7.205147743E-1,1.821710587E0
1.724616516E0,-5.843303204E-1,-8.682599068E-1,1.704399109E0
1.729646829E0,-6.263206601E-1,-9.940681458E-1,1.651931763E0
1.734677089E0,-7.115834951E-1,-1.097841740E0,1.597178459E0
1.739644120E0,-8.191884756E-1,-1.146082401E0,1.509054184E0
1.744674433E0,-9.232076406E-1,-1.160504341E0,1.464140892E0
1.749704693E0,-9.903910160E-1,-1.090694427E0,1.347443581E0
1.754735058E0,-1.035021067E0,-1.061586380E0,1.274116516E0
1.759765370E0,-1.025522113E0,-1.047101021E0,1.194037437E0
1.764795631E0,-9.996050596E-1,-1.001910210E0,1.088138580E0
1.769824693E0,-9.278178215E-1,-1.033832073E0,9.613800049E-1
1.774855006E0,-8.261517286E-1,-1.076533794E0,8.094940186E-1
1.779885318E0,-7.395446301E-1,-1.151548386E0,7.233362198E-1
1.784915631E0,-6.586374044E-1,-1.151721954E0,7.483978271E-1
1.789945943E0,-6.102948189E-1,-1.182396412E0,7.243871689E-1
1.794976256E0,-6.043376327E-1,-1.164766312E0,6.563243866E-1
1.800007506E0,-6.650041342E-1,-1.154224396E0,4.872570038E-1
1.805037818E0,-6.965240240E-1,-1.105355740E0,3.584127426E-1
1.810068131E0,-7.039575577E-1,-1.089743137E0,2.624225616E-1
1.815098443E0,-7.739108801E-1,-1.107048988E0,1.799697876E-1
1.820128756E0,-7.991076708E-1,-1.121026993E0,8.217334747E-2
1.825159016E0,-8.422139883E-1,-1.100362301E0,1.909446716E-2
1.830194850E0,-9.105139971E-1,-1.076004505E0,-7.636547089E-2
1.835225162E0,-9.659466147E-1,-1.038065434E0,-1.469964981E-1
1.840255475E0,-1.034943461E0,-1.017394066E0,-1.619663239E-1
1.845285787E0,-1.043878555E0,-1.035212040E0,-1.502332687E-1
1.850316100E0,-1.052940726E0,-1.038537502E0,-1.909065247E-1
1.855346360E0,-1.085699439E0,-1.055803776E0,-3.652696609E-1
1.860376308E0,-1.084171057E0,-1.112851620E0,-5.108199120E-1
1.865406620E0,-1.014242887E0,-1.144719124E0,-5.634331703E-1
1.870436881E0,-9.328742027E-1,-1.211118698E0,-5.831842422E-1
1.875467245E0,-8.757662773E-1,-1.256801605E0,-5.918393135E-1
1.880497558E0,-8.281370401E-1,-1.322447777E0,-6.491813660E-1
1.885527818E0,-7.605130672E-1,-1.410236359E0,-7.600269318E-1
1.890563287E0,-6.435085535E-1,-1.486701965E0,-8.071985245E-1
1.895593600E0,-5.792026520E-1,-1.566195011E0,-8.960542679E-1
1.900623912E0,-5.122867823E-1,-1.641526699E0,-9.572401047E-1
1.905654225E0,-4.764676094E-1,-1.672016621E0,-9.526658058E-1
1.910684537E0,-4.338941574E-1,-1.640944481E0,-8.849749565E-1
1.915714850E0,-4.116731584E-1,-1.603559017E0,-8.210997581E-1
1.920736412E0,-4.320488870E-1,-1.578928471E0,-8.374977112E-1
1.925766725E0,-4.500146210E-1,-1.541082382E0,-7.736110687E-1
1.930796985E0,-4.494858980E-1,-1.466437340E0,-7.536616325E-1
1.935827350E0,-4.475650191E-1,-1.436244011E0,-7.154650688E-1
1.940857662E0,-4.756018519E-1,-1.407757759E0,-7.089505196E-1
1.945887923E0,-4.998405576E-1,-1.338025570E0,-7.172808647E-1
1.950935475E0,-5.369638801E-1,-1.289327621E0,-7.093238831E-1
1.955965787E0,-5.249831676E-1,-1.252177715E0,-7.973122597E-1
1.960996100E0,-4.947149754E-1,-1.247892857E0,-8.903412819E-1
1.966026412E0,-4.983639121E-1,-1.297930241E0,-9.859972000E-1
1.971056725E0,-4.809323549E-1,-1.332855701E0,-9.767618179E-1
1.976087037E0,-4.307633340E-1,-1.319382668E0,-8.914732933E-1
1.981109068E0,-4.436483681E-1,-1.279134750E0,-9.119153023E-1
1.986139381E0,-4.543757439E-1,-1.262874126E0,-9.036426544E-1
1.991169693E0,-4.431836009E-1,-1.227781773E0,-8.976259232E-1
1.996200006E0,-4.549082518E-1,-1.214952469E0,-9.007267952E-1
2.001230318E0,-4.766610861E-1,-1.198396206E0,-9.103031158E-1
2.006260579E0,-5.157157183E-1,-1.168691635E0,-8.378272057E-1
2.011283079E0,-5.102427006E-1,-1.092541695E0,-8.004775047E-1
2.016313391E0,-5.325701833E-1,-1.015604973E0,-8.290901184E-1
2.021343704E0,-6.139875650E-1,-9.571108818E-1,-8.349847794E-1
2.026373964E0,-6.710591316E-1,-9.242186546E-1,-8.898520470E-1
2.031404277E0,-7.115788460E-1,-9.143853188E-1,-8.765215874E-1
2.036434589E0,-7.434973717E-1,-8.534340858E-1,-8.883543015E-1
2.041470787E0,-8.366432190E-1,-8.150725365E-1,-9.495377541E-1
2.046501048E0,-9.122147560E-1,-7.223606110E-1,-1.005301476E0
2.051531412E0,-9.728483558E-1,-6.685109138E-1,-9.458203316E-1
2.056561725E0,-1.002179861E0,-5.764174461E-1,-9.486155510E-1
2.061592037E0,-1.100797892E0,-5.079650879E-1,-1.047243595E0
2.066622298E0,-1.177668929E0,-4.506020546E-1,-1.096134186E0
2.071649589E0,-1.218168497E0,-4.443311691E-1,-1.167583466E0
2.076679902E0,-1.260400653E0,-4.194502831E-1,-1.147067070E0
2.081710214E0,-1.236901999E0,-4.331474304E-1,-1.125808716E0
2.086740475E0,-1.195283294E0,-4.350657463E-1,-1.115840435E0
2.091770839E0,-1.170959473E0,-3.701572418E-1,-1.059897900E0
2.096801100E0,-1.127785921E0,-3.176517487E-1,-1.046358109E0
2.101854068E0,-1.105974317E0,-2.945294380E-1,-1.034289360E0
2.106884381E0,-1.030832291E0,-2.648777962E-1,-9.854755402E-1
2.111914693E0,-9.550431371E-1,-2.002396584E-1,-8.616123199E-1
2.116945006E0,-8.665097952E-1,-1.536474228E-1,-7.462272644E-1
2.121975318E0,-7.244382501E-1,-9.923934937E-2,-6.532745361E-1
2.127005579E0,-6.053529978E-1,-8.756065369E-2,-5.179095268E-1
2.132013600E0,-5.017302036E-1,-4.484891891E-2,-4.785218239E-1
2.137043912E0,-5.038901567E-1,2.396154404E-2,-4.966058731E-1
2.142074225E0,-4.559544623E-1,4.896450043E-2,-4.306225777E-1
2.147104485E0,-4.131829739E-1,1.041769981E-1,-3.093099594E-1
2.152134850E0,-4.455490112E-1,1.894078255E-1,-1.995840073E-1
2.157165110E0,-5.033202171E-1,3.211569786E-1,-1.896848679E-1
2.162194329E0,-6.034050584E-1,4.154324532E-1,-2.003121376E-1
2.167224537E0,-6.237040758E-1,5.176153183E-1,-1.190109253E-1
2.172254798E0,-6.673932672E-1,6.036286354E-1,1.351404190E-2
2.177285006E0,-6.084225178E-1,6.760687828E-1,7.038497925E-2
2.182315266E0,-5.738471746E-1,6.963925362E-1,8.312463760E-2
2.187345475E0,-5.392462015E-1,6.886153221E-1,8.767127991E-2
2.192387350E0,-4.710557461E-1,6.815023422E-1,1.413884163E-1
2.197417558E0,-3.502134681E-1,6.871027946E-1,2.082409859E-1
2.202447818E0,-2.579320669E-1,6.168117523E-1,1.879420280E-1
2.207478027E0,-2.365271747E-1,5.447659492E-1,1.070671082E-1
2.212508287E0,-2.063875347E-1,5.422124863E-1,6.649160385E-2
2.217538495E0,-2.151588500E-1,4.989843369E-1,1.361799240E-2
2.222567245E0,-2.270290554E-1,4.750804901E-1,-7.312440872E-2
2.227597454E0,-3.356115818E-1,4.395742416E-1,-1.531267166E-1
2.232627714E0,-4.483181238E-1,4.192414284E-1,-1.502304077E-1
2.237657923E0,-4.921112955E-1,5.124812126E-1,-8.403968811E-2
2.242688183E0,-4.948390424E-1,5.405082703E-1,-1.751112938E-1
2.247718391E0,-5.571540594E-1,4.828629494E-1,-2.637009621E-1
2.252750006E0,-5.002105832E-1,6.460247040E-1,-9.198141098E-2
2.257780214E0,-4.666404724E-1,7.098398209E-1,-2.011842728E-1
2.262810475E0,-5.466198921E-1,7.135658264E-1,-3.308749199E-1
2.267840683E0,-5.025051236E-1,8.371839523E-1,-2.282190323E-1
2.272870943E0,-4.539630413E-1,9.207525253E-1,-1.451334953E-1
2.277901152E0,-3.986530304E-1,9.524769783E-1,2.000808716E-3
2.282928600E0,-3.387138247E-1,1.033085346E0,1.650128365E-1
2.287958808E0,-2.375875115E-1,1.114483833E0,2.794556618E-1
2.292989068E0,-1.278557181E-1,1.179584026E0,4.150123596E-1
2.298019277E0,7.760265470E-2,1.220643997E0,5.051860809E-1
2.303049537E0,3.079323471E-1,1.222774029E0,6.652741432E-1
2.308079745E0,4.899134040E-1,1.228473186E0,9.912042618E-1
2.313105683E0,7.243068218E-1,1.265360355E0,1.239705086E0
2.318135891E0,8.613362312E-1,1.265495777E0,1.316098213E0
2.323166152E0,9.553651214E-1,1.232586861E0,1.331614971E0
2.328196360E0,1.040866852E0,1.177682877E0,1.370832443E0
2.333226620E0,1.067929745E0,1.073808670E0,1.467791557E0
2.338256829E0,1.023857236E0,1.018481255E0,1.567989826E0
2.343290995E0,9.810272455E-1,9.660410881E-1,1.664525986E0
2.348321204E0,8.276382089E-1,9.143090248E-1,1.623520851E0
2.353351464E0,6.321295500E-1,8.778538704E-1,1.595778465E0
2.358381673E0,5.437288284E-1,9.645676613E-1,1.607375145E0
2.363411933E0,4.100511074E-1,1.038492680E0,1.543120384E0
2.368442141E0,2.856518626E-1,1.037907124E0,1.374204636E0
2.373482454E0,2.778834701E-1,9.299850464E-1,1.210426331E0
2.378512662E0,4.317046702E-1,7.658991814E-1,1.149142742E0
2.383542923E0,3.095089197E-1,7.017483711E-1,9.290442467E-1
2.388573131E0,1.130785942E0,3.868770599E-1,1.293015957E0
2.393603391E0,1.305176973E0,-6.449079514E-2,9.143991470E-1
2.398633600E0,1.403336167E0,-2.324190140E-1,5.176601410E-1
2.403652454E0,1.616975188E0,-3.486862183E-1,3.816785812E-1
2.408682662E0,1.673748374E0,-3.142237663E-1,2.297773361E-1
2.413712923E0,1.679820180E0,-1.380481720E-1,1.136260033E-1
2.418743131E0,1.504398584E0,1.536846161E-2,1.924495697E-1
2.423773391E0,1.588076591E0,1.654911041E-1,5.395727158E-1
2.428803600E0,1.698779345E0,1.309690475E-1,8.697390556E-1
2.433834329E0,1.625590086E0,5.839538574E-2,9.627337456E-1
2.438864537E0,1.647637725E0,5.525159836E-2,1.039126396E0
2.443894798E0,1.701217651E0,8.506059647E-2,1.130519867E0
2.448925006E0,1.751422644E0,8.035945892E-2,1.246943951E0
2.453955266E0,1.734724522E0,5.207252502E-2,1.260370731E0
2.458985475E0,1.753058672E0,6.368398666E-2,1.368111610E0
2.464019954E0,1.890895486E0,-6.782770157E-2,1.590309143E0
2.469050162E0,2.036280394E0,-2.745699883E-1,1.811215401E0
2.474080423E0,2.206280947E0,-3.955144882E-1,2.077794552E0
2.479110631E0,2.269249678E0,-4.900746346E-1,2.281662464E0
2.484140891E0,2.361574173E0,-5.481715202E-1,2.362370014E0
2.489171152E0,2.305731058E0,-5.378379822E-1,2.385925293E0
2.494205683E0,2.099015474E0,-3.863143921E-1,2.229142666E0
2.499235943E0,1.893468261E0,-2.952938080E-1,2.055460930E0
2.504266152E0,1.704166174E0,-2.266921997E-1,1.903443813E0
2.509296360E0,1.591325521E0,-3.211593628E-1,1.717813015E0
2.514326620E0,1.517462373E0,-4.251341820E-1,1.367002010E0
2.519356829E0,1.450632095E0,-5.665645599E-1,1.013316631E0
2.524388339E0,1.323374867E0,-6.392836571E-1,6.297268867E-1
2.529418548E0,1.238260031E0,-7.237038612E-1,2.584919930E-1
2.534448808E0,1.144563794E0,-7.804765701E-1,-1.108665466E-1
2.539479016E0,1.082630277E0,-8.179454803E-1,-4.842200279E-1
2.544509277E0,1.014130473E0,-8.036875725E-1,-8.293051720E-1
2.549539537E0,1.061531782E0,-8.466610909E-1,-1.130466938E0
2.554562975E0,1.186908841E0,-9.218602180E-1,-1.300264359E0
2.559593183E0,1.278613806E0,-1.035678387E0,-1.471161842E0
2.564623391E0,1.423984170E0,-1.089189529E0,-1.639221191E0
2.569653652E0,1.518504024E0,-1.122767448E0,-1.764245987E0
2.574683912E0,1.524543047E0,-1.126415730E0,-1.856402397E0
2.579714120E0,1.531477451E0,-1.123939991E0,-1.920767307E0
2.584749745E0,1.535258174E0,-1.112731457E0,-1.847710609E0
2.589779954E0,1.562252879E0,-1.097698689E0,-1.575279713E0
2.594810214E0,1.623815536E0,-1.162860870E0,-1.335462570E0
2.599840423E0,1.549964190E0,-1.212705612E0,-1.245087624E0
2.604870683E0,1.506683230E0,-1.252583504E0,-1.138401031E0
2.609900943E0,1.492090583E0,-1.304751873E0,-1.067349911E0
2.614930266E0,1.492351294E0,-1.393620968E0,-8.831334114E-1
2.619960475E0,1.455032110E0,-1.495687485E0,-7.982840538E-1
2.624990735E0,1.342182875E0,-1.549241066E0,-7.356295586E-1
2.630020943E0,1.282917738E0,-1.566647053E0,-6.684961319E-1
2.635051204E0,1.190761566E0,-1.624845028E0,-6.993222237E-1
2.640081412E0,1.094176292E0,-1.654554367E0,-6.556200981E-1
2.645119329E0,1.028862476E0,-1.739716530E0,-6.903276443E-1
2.650149589E0,9.250703454E-1,-1.736774445E0,-7.602272034E-1
2.655179798E0,8.254671693E-1,-1.729559422E0,-8.198194504E-1
2.660210006E0,6.577840447E-1,-1.761033058E0,-8.118042946E-1
2.665240266E0,5.412027836E-1,-1.759314060E0,-8.774414062E-1
2.670270527E0,4.226013720E-1,-1.755431652E0,-9.449701309E-1
2.675325787E0,2.612441778E-1,-1.744287014E0,-1.055334568E0
2.680356048E0,1.734136045E-1,-1.735380650E0,-1.143991947E0
2.685386256E0,1.229377538E-1,-1.735648155E0,-1.180137157E0
2.690416516E0,6.878362596E-2,-1.690013409E0,-1.223731041E0
2.695446725E0,3.961919248E-2,-1.686890602E0,-1.384889603E0
2.700476985E0,-5.172342062E-3,-1.690155029E0,-1.391002178E0
2.705481985E0,-1.322147250E-2,-1.635318756E0,-1.419243336E0
2.710512298E0,-3.930768371E-2,-1.584452629E0,-1.486499786E0
2.715542506E0,-2.391189337E-2,-1.568836689E0,-1.511239529E0
2.720572714E0,-4.351261258E-2,-1.466433048E0,-1.440975189E0
2.725602975E0,-5.561709404E-2,-1.389956474E0,-1.373799324E0
2.730633235E0,-6.775090098E-2,-1.317939758E0,-1.398115635E0
2.735655266E0,-3.225299716E-2,-1.212283134E0,-1.367774963E0
2.740685475E0,-1.872450113E-3,-1.142490864E0,-1.333016396E0
2.745715735E0,1.000761390E-1,-1.048702240E0,-1.396681309E0
2.750745995E0,1.089785695E-1,-8.974113464E-1,-1.429514408E0
2.755776204E0,1.112911999E-1,-7.629375458E-1,-1.326274395E0
2.760806412E0,2.003813982E-1,-6.836147308E-1,-1.292740345E0
2.765867298E0,2.183303237E-1,-5.590410233E-1,-1.283240318E0
2.770897506E0,2.655077279E-1,-4.395813942E-1,-1.187692165E0
2.775927766E0,3.158017397E-1,-3.491778374E-1,-1.065979004E0
2.780957975E0,3.286669254E-1,-2.139225006E-1,-1.056581974E0
2.785988183E0,3.355228901E-1,-9.841203690E-2,-1.001505852E0
2.791018443E0,3.176402450E-1,5.952310562E-2,-9.868564606E-1
2.796019329E0,2.991879582E-1,1.881427765E-1,-9.408745766E-1
2.801049537E0,2.467441559E-1,2.876772881E-1,-8.135585785E-1
2.806079798E0,2.201542854E-1,3.963179588E-1,-7.747182846E-1
2.811110006E0,1.835504174E-1,4.759449959E-1,-7.286815643E-1
2.816140266E0,1.440068781E-1,5.649108887E-1,-6.587657928E-1
2.821170475E0,8.977738023E-2,6.296806335E-1,-6.295237541E-1
2.826203548E0,1.922538877E-2,7.086553574E-1,-6.098361015E-1
2.831233704E0,-4.126304388E-2,8.326854706E-1,-4.488554001E-1
2.836263964E0,-1.205650568E-1,9.918956757E-1,-3.164196014E-1
2.841294225E0,-1.567363143E-1,1.092642307E0,-1.739516258E-1
2.846324485E0,-1.810961962E-1,1.163405895E0,-5.946207047E-2
2.851354693E0,-1.934191585E-1,1.258774757E0,6.099224091E-2
2.856404485E0,-2.176774144E-1,1.330620289E0,1.469721794E-1
2.861434745E0,-1.963452399E-1,1.378810406E0,2.154350281E-1
2.866465006E0,-1.341105700E-1,1.405570030E0,2.642154694E-1
2.871495214E0,-1.144866347E-1,1.456146240E0,3.007359505E-1
2.876525475E0,-1.496181786E-1,1.489924908E0,3.321166039E-1
2.881555683E0,-1.555601656E-1,1.523801804E0,2.339282036E-1
2.886575839E0,-1.320490539E-1,1.541432381E0,1.280407906E-1
2.891606048E0,-8.596992493E-2,1.581510067E0,5.718564987E-2
2.896636256E0,-8.162221313E-2,1.582377434E0,4.099369049E-3
2.901666516E0,-9.232598543E-2,1.539928913E0,-1.274180412E-1
2.906696777E0,-1.462434232E-1,1.543635368E0,-2.591047287E-1
2.911726985E0,-2.530422211E-1,1.562988758E0,-3.006978035E-1
2.916758704E0,-4.490801990E-1,1.541150570E0,-2.840061188E-1
2.921788912E0,-6.247692108E-1,1.521811008E0,-2.407813072E-1
2.926819173E0,-7.972004414E-1,1.450125217E0,-1.736392975E-1
2.931849381E0,-9.141122103E-1,1.342790604E0,-2.513885498E-2
2.936879641E0,-1.009499311E0,1.264380455E0,2.261190414E-1
2.941909850E0,-1.155679822E0,1.219064236E0,4.297757149E-1
2.946955423E0,-1.288186073E0,1.213513374E0,6.460895538E-1
2.951985631E0,-1.423790693E0,1.242435932E0,7.869582176E-1
2.957015839E0,-1.525814772E0,1.276301861E0,9.154438972E-1
2.962046100E0,-1.713230610E0,1.343112469E0,1.132675171E0
2.967076360E0,-1.885269165E0,1.454037666E0,1.298079967E0
2.972106568E0,-1.879533887E0,1.529488087E0,1.515106678E0
2.977119745E0,-1.753912687E0,1.511580467E0,1.719580650E0
2.982149954E0,-1.724243760E0,1.400125980E0,1.775504589E0
2.987180214E0,-1.673051715E0,1.286027431E0,1.762182713E0
2.992210423E0,-1.700501919E0,1.231459618E0,1.665428162E0
2.997240683E0,-1.835316181E0,1.296459198E0,1.508985519E0
3.002270891E0,-1.976943254E0,1.318474293E0,1.278379440E0
3.007322766E0,-2.132741928E0,1.247868538E0,1.123933315E0
3.012353027E0,-2.209737539E0,1.111948013E0,9.036417007E-1
3.017383235E0,-2.263210058E0,9.569487572E-1,6.480593681E-1
3.022413495E0,-2.255372286E0,8.026590347E-1,4.379372597E-1
3.027443704E0,-2.346880674E0,6.376338005E-1,3.061571121E-1
3.032473964E0,-2.370702982E0,4.984884262E-1,2.231421471E-1
3.037516100E0,-2.430543423E0,3.379545212E-1,1.809716225E-1
3.042546360E0,-2.453722954E0,1.063504219E-1,1.837177277E-1
3.047576568E0,-2.214294195E0,-2.142124176E-1,1.966323853E-1
3.052606829E0,-2.021594524E0,-4.550514221E-1,1.970701218E-1
3.057637037E0,-1.930449724E0,-5.176835060E-1,3.687081337E-1
3.062667298E0,-1.785870075E0,-4.806971550E-1,7.369995117E-1
3.067661673E0,-1.657371640E0,-2.985239029E-1,1.122108459E0
3.072691881E0,-1.516720057E0,-1.745786667E-1,1.509714603E0
3.077722141E0,-1.288506269E0,-1.310086250E-1,1.912773609E0
3.082752350E0,-1.061781764E0,-1.374263763E-1,2.330002785E0
3.087782610E0,-8.171372414E-1,-1.614985466E-1,2.748499393E0
3.092812818E0,-6.357182264E-1,-1.662158966E-1,3.088345528E0
3.097866100E0,-5.130471587E-1,-2.150516510E-1,3.322205067E0
3.102896360E0,-4.534155130E-1,-2.042927742E-1,3.365601540E0
3.107926620E0,-4.335718453E-1,-2.472743988E-1,3.394078732E0
3.112956829E0,-5.117850304E-1,-3.928270340E-1,3.339129925E0
3.117987089E0,-5.818458200E-1,-5.843248367E-1,3.335480213E0
3.123017298E0,-6.729286909E-1,-8.177790642E-1,3.321444988E0
3.128029745E0,-8.003425598E-1,-9.911317825E-1,3.144548893E0
3.133059954E0,-9.294630289E-1,-1.212612152E0,2.908202171E0
3.138090214E0,-1.030694962E0,-1.439400673E0,2.689187050E0
3.143120423E0,-1.134839773E0,-1.585415363E0,2.506528378E0
3.148150683E0,-1.256332040E0,-1.664901733E0,2.225931168E0
3.153180891E0,-1.366384864E0,-1.667984486E0,1.940366745E0
3.158214641E0,-1.452877045E0,-1.594271660E0,1.740175247E0
3.163244850E0,-1.467643499E0,-1.539178371E0,1.512372494E0
3.168275110E0,-1.385624528E0,-1.574112892E0,1.223174572E0
3.173305318E0,-1.252579212E0,-1.566822052E0,9.654688835E-1
3.178335579E0,-1.145289302E0,-1.612388611E0,8.295478821E-1
3.183365839E0,-1.013705134E0,-1.568998337E0,6.616458893E-1
3.188396256E0,-9.199604988E-1,-1.493614197E0,5.857391357E-1
3.193426620E0,-8.162012100E-1,-1.363864422E0,5.364046097E-1
3.198456985E0,-7.428650856E-1,-1.246017933E0,4.029936790E-1
3.203487350E0,-7.037853003E-1,-1.161070824E0,1.781392097E-1
3.208517714E0,-5.559039116E-1,-1.127552509E0,3.625917435E-2
3.213548079E0,-3.549842536E-1,-1.116228580E0,3.674125671E-2
3.218589225E0,-2.360044420E-1,-1.155435085E0,5.955982208E-2
3.223619589E0,-1.017726660E-1,-1.163735867E0,1.501231194E-1
3.228649954E0,-1.352787018E-3,-1.184202671E0,2.078547478E-1
3.233680318E0,5.470652878E-2,-1.250453472E0,1.850972176E-1
3.238710683E0,4.356750846E-2,-1.261748314E0,2.563662529E-1
3.243741048E0,6.399539113E-2,-1.268306732E0,3.329033852E-1
3.248762141E0,1.804117858E-2,-1.308551788E0,3.621706963E-1
3.253792506E0,-6.795047224E-2,-1.303407192E0,3.154311180E-1
3.258822870E0,-1.177781224E-1,-1.331931114E0,2.645874023E-1
3.263853235E0,-1.437403858E-1,-1.394005299E0,1.107025146E-2
3.268883600E0,-1.001900882E-1,-1.494332314E0,-2.295536995E-1
3.273913964E0,-4.904058576E-2,-1.623619080E0,-3.445758820E-1
3.278938808E0,-6.497339904E-2,-1.674579620E0,-3.864583969E-1
3.283969173E0,-9.639734030E-2,-1.659613609E0,-4.602727890E-1
3.288999537E0,-9.655655921E-2,-1.624987125E0,-4.338126183E-1
3.294029902E0,-1.483508050E-1,-1.566576481E0,-3.880529404E-1
3.299060266E0,-1.860217154E-1,-1.492226124E0,-4.086437225E-1
3.304090631E0,-1.720333397E-1,-1.433968544E0,-4.206185341E-1
3.309149016E0,-1.574544609E-1,-1.390043259E0,-3.661003113E-1
3.314179433E0,-1.530686319E-1,-1.377748966E0,-4.193997383E-1
3.319209798E0,-1.538814008E-1,-1.385468960E0,-5.657019615E-1
3.324240162E0,-3.827717900E-2,-1.453987598E0,-5.105857849E-1
3.329270475E0,-1.573607028E-1,-1.487275600E0,-6.421499252E-1
3.334300891E0,-3.625138104E-1,-1.394138813E0,-8.264675140E-1
3.339309120E0,-4.957191646E-1,-1.305894375E0,-9.035511017E-1
3.344339485E0,-6.363586187E-1,-1.226939678E0,-1.050872326E0
3.349369850E0,-7.597022057E-1,-1.269490719E0,-1.179918289E0
3.354400214E0,-7.678765059E-1,-1.351709366E0,-1.226385593E0
3.359430579E0,-8.023751974E-1,-1.379201412E0,-1.332366467E0
3.364460943E0,-8.319240212E-1,-1.320279121E0,-1.462413311E0
3.369508339E0,-8.344493508E-1,-1.243858337E0,-1.566685200E0
3.374538756E0,-7.612390518E-1,-1.226075649E0,-1.650300503E0
3.379569120E0,-6.256378293E-1,-1.204436779E0,-1.624912739E0
3.384599485E0,-4.027809501E-1,-1.243502617E0,-1.562423706E0
3.389629850E0,-1.945073903E-1,-1.180392742E0,-1.506036758E0
3.394660214E0,4.361037165E-2,-1.084822655E0,-1.431646347E0
3.399670631E0,2.453625798E-1,-1.035839558E0,-1.372726440E0
3.404700995E0,3.894523978E-1,-9.547762871E-1,-1.211793900E0
3.409731360E0,5.242761970E-1,-8.227043152E-1,-9.991269112E-1
3.414761725E0,6.375598311E-1,-7.213277817E-1,-8.230752945E-1
3.419792089E0,6.838958263E-1,-5.885119438E-1,-7.241845131E-1
3.424822454E0,7.327563167E-1,-4.891500473E-1,-6.112437248E-1
3.429861829E0,7.571887970E-1,-4.093065262E-1,-5.795645714E-1
3.434892245E0,7.043051720E-1,-3.583650589E-1,-5.837216377E-1
3.439922610E0,6.693652272E-1,-3.459877968E-1,-6.163721085E-1
3.444952975E0,6.400423050E-1,-3.099727631E-1,-6.487298012E-1
3.449983339E0,5.942700505E-1,-2.887511253E-1,-6.926431656E-1
3.455013704E0,5.225676298E-1,-2.515287399E-1,-7.645611763E-1
3.460044745E0,4.969770610E-1,-2.128853798E-1,-8.020796776E-1
3.465075110E0,4.409361780E-1,-1.920022964E-1,-8.171744347E-1
3.470105475E0,3.209703565E-1,-1.576771736E-1,-8.936643600E-1
3.475135839E0,2.451553345E-1,-1.123204231E-1,-1.052998543E0
3.480166204E0,2.159590125E-1,-1.132717133E-1,-1.156395435E0
3.485196568E0,1.403394789E-1,-1.194815636E-1,-1.273591995E0
3.490232662E0,9.991870821E-2,-1.498126984E-1,-1.349793434E0
3.495263079E0,1.042528450E-1,-1.633520126E-1,-1.380466938E0
3.500293443E0,1.147226542E-1,-1.620502472E-1,-1.430668831E0
3.505323808E0,5.942127109E-2,-1.576995850E-1,-1.368976593E0
3.510354173E0,-1.850189269E-2,-1.787357330E-1,-1.353671551E0
3.515384537E0,-5.933442712E-2,-2.150821686E-1,-1.310954571E0
3.520409016E0,-4.410579801E-2,-2.065591812E-1,-1.183773518E0
3.525439381E0,-5.443297327E-2,-2.319855690E-1,-9.939393997E-1
3.530469745E0,-6.459049881E-2,-1.906037331E-1,-7.202105522E-1
3.535500110E0,-1.605450660E-1,-1.277632713E-1,-5.446796417E-1
3.540530475E0,-2.223367989E-1,-1.010632515E-1,-3.378968239E-1
3.545560839E0,-2.306320518E-1,-1.486763954E-1,-1.214756966E-1
3.550605995E0,-2.430971712E-1,-1.629762650E-1,1.812434196E-1
3.555636412E0,-3.028656542E-1,-1.774187088E-1,4.576597214E-1
3.560666777E0,-4.244248867E-1,-1.443457603E-1,7.247424126E-1
3.565697089E0,-5.311105251E-1,-8.070230484E-2,9.060964584E-1
3.570727454E0,-6.727509499E-1,1.293182373E-3,1.188624859E0
3.575757870E0,-7.412908673E-1,1.037106514E-1,1.354773521E0
3.580780891E0,-7.816884518E-1,1.063833237E-1,1.508031845E0
3.585811256E0,-7.547010183E-1,1.307878494E-1,1.660940170E0
3.590841620E0,-6.670488119E-1,1.117849350E-1,1.816337109E0
3.595871985E0,-5.570979714E-1,1.275520325E-1,2.022772312E0
3.600902350E0,-4.014500082E-1,1.247382164E-1,2.208996296E0
3.605932714E0,-2.458778918E-1,1.244225502E-1,2.279753685E0
3.610970891E0,-1.168155074E-1,1.284117699E-1,2.266792774E0
3.616001308E0,-1.428708993E-2,9.085702896E-2,2.206437588E0
3.621031673E0,1.045935005E-1,5.726242065E-2,2.048528671E0
3.626062037E0,1.678802669E-1,2.541732788E-2,1.802628040E0
3.631092402E0,2.040158659E-1,2.426052094E-2,1.550012589E0
3.636122766E0,2.268719673E-1,-1.485013962E-2,1.419242382E0
3.641137089E0,2.089015245E-1,-1.149940491E-1,1.258783340E0
3.646167454E0,2.258524001E-1,-2.253813744E-1,1.068272591E0
3.651197818E0,2.426508963E-1,-3.953523636E-1,9.689693451E-1
3.656228183E0,2.481179684E-1,-5.688929558E-1,9.216361046E-1
3.661258548E0,2.504194081E-1,-7.090382576E-1,7.960324287E-1
3.666288912E0,2.339753211E-1,-7.476077080E-1,6.413774490E-1
3.671313756E0,1.688022017E-1,-6.910581589E-1,5.526003838E-1
3.676344120E0,3.955583274E-2,-5.025429726E-1,5.262703896E-1
3.681374485E0,-1.812270284E-2,-1.956381798E-1,6.380829811E-1
3.686404850E0,2.615903318E-2,6.245183945E-2,8.062806129E-1
3.691435214E0,2.249189913E-1,2.886500359E-1,1.093090057E0
3.696465579E0,5.880367756E-1,4.850788116E-1,1.453433990E0
3.701494954E0,1.035079360E0,6.102519035E-1,1.888233185E0
3.706525266E0,1.423944473E0,7.825722694E-1,2.341334343E0
3.711555683E0,1.837925553E0,9.429826736E-1,2.763980865E0
3.716586048E0,2.250361919E0,1.049466610E0,3.092853546E0
3.721616412E0,2.536950111E0,1.246735096E0,3.257348537E0
3.726646777E0,2.757550478E0,1.464050770E0,3.392517567E0
3.731682245E0,2.895075560E0,1.611709595E0,3.513448715E0
3.736712610E0,3.027948380E0,1.719749451E0,3.625545502E0
3.741742975E0,3.099802971E0,1.739439011E0,3.628755569E0
3.746773339E0,3.130798101E0,1.782304764E0,3.650469780E0
3.751803704E0,3.049853563E0,1.761739731E0,3.487371445E0
3.756834068E0,2.960908413E0,1.703709602E0,3.201947212E0
3.761873079E0,2.847945929E0,1.589004993E0,3.002345085E0
3.766903443E0,2.669888020E0,1.431987762E0,2.838165283E0
3.771933808E0,2.540900946E0,1.213681698E0,2.556164742E0
3.776964173E0,2.397820711E0,1.015631199E0,2.228225708E0
3.781994537E0,2.196041584E0,7.688651085E-1,1.949931145E0
3.787024902E0,1.933951735E0,5.747399330E-1,1.682532310E0
3.792053600E0,1.654845238E0,4.219145775E-1,1.279812813E0
3.797083964E0,1.390839338E0,2.588911057E-1,8.584814072E-1
3.802114381E0,1.195582151E0,9.855270386E-2,4.874210358E-1
3.807144745E0,1.050837159E0,-9.644174576E-2,1.038064957E-1
3.812175110E0,9.960121512E-1,-2.867584229E-1,-2.188301086E-1
3.817205475E0,1.013388157E0,-4.380955696E-1,-4.213056564E-1
3.822232350E0,9.751920104E-1,-5.187969208E-1,-4.898300171E-1
3.827262714E0,9.797673225E-1,-5.524001122E-1,-5.302209854E-1
3.832293079E0,1.041743755E0,-6.463398933E-1,-5.977802277E-1
3.837323443E0,1.198108435E0,-7.047572136E-1,-6.639127731E-1
3.842353808E0,1.400334358E0,-8.355069160E-1,-7.142910957E-1
3.847384173E0,1.588126421E0,-9.667329788E-1,-7.945389748E-1
3.852440891E0,1.727342010E0,-1.050808430E0,-8.304429054E-1
3.857471256E0,1.829307318E0,-1.142626762E0,-9.706993103E-1
3.862501673E0,1.885693312E0,-1.234673977E0,-1.110287189E0
3.867532037E0,1.907075405E0,-1.269362450E0,-1.177679539E0
3.872562402E0,1.867579699E0,-1.306375504E0,-1.264085293E0
3.877592766E0,1.762592196E0,-1.371590614E0,-1.345902443E0
3.882589641E0,1.658702374E0,-1.414596081E0,-1.442325592E0
3.887620006E0,1.529990077E0,-1.473620415E0,-1.488797188E0
3.892650370E0,1.438651323E0,-1.579876423E0,-1.530675888E0
3.897680735E0,1.291182995E0,-1.678600311E0,-1.500643730E0
3.902711100E0,1.096787453E0,-1.724467278E0,-1.448820114E0
3.907741464E0,8.830409050E-1,-1.713255882E0,-1.372291565E0
3.912781464E0,7.229385376E-1,-1.717370033E0,-1.263334274E0
3.917811829E0,5.285880566E-1,-1.672513962E0,-1.195765495E0
3.922842193E0,4.206393063E-1,-1.617542267E0,-1.114027023E0
3.927872558E0,2.708079219E-1,-1.576689243E0,-1.087243557E0
3.932902923E0,2.843611836E-1,-1.519491673E0,-8.636579514E-1
3.937933287E0,1.509290189E-1,-1.443858624E0,-7.399787903E-1
3.942968912E0,5.950573087E-2,-1.323813915E0,-8.235592842E-1
3.947999277E0,4.856216908E-2,-1.198174953E0,-8.100023270E-1
3.953029641E0,9.930604696E-2,-1.127072811E0,-7.184033394E-1
3.958060006E0,1.382976472E-1,-1.017498493E0,-7.089333534E-1
3.963090370E0,1.731525511E-1,-9.676485062E-1,-7.623410225E-1
3.968120735E0,2.046327293E-1,-9.751920700E-1,-8.880362511E-1
3.973151204E0,2.167125344E-1,-9.370589256E-1,-1.033393860E0
3.978181568E0,1.642996967E-1,-8.914179802E-1,-1.126738071E0
3.983211933E0,1.074867621E-1,-8.784799576E-1,-1.290493011E0
3.988242298E0,9.617443383E-2,-8.118262291E-1,-1.393167496E0
3.993272662E0,1.035317630E-1,-7.317385674E-1,-1.504565716E0
3.998303027E0,7.646390796E-2,-6.881933212E-1,-1.565088749E0
4.003328756E0,8.630183339E-2,-6.617989540E-1,-1.594113827E0
4.008359120E0,7.974942029E-2,-6.259465218E-1,-1.606271267E0
4.013389485E0,1.256909221E-1,-5.853972435E-1,-1.608821392E0
4.018419850E0,1.040084064E-1,-5.519161224E-1,-1.582825184E0
4.023450214E0,1.436503232E-1,-5.133266449E-1,-1.511760235E0
4.028480579E0,2.154576480E-1,-4.575510025E-1,-1.458013058E0
4.033530995E0,2.781331837E-1,-3.627281189E-1,-1.462541580E0
4.038561412E0,2.890314460E-1,-2.550301552E-1,-1.424928665E0
4.043591777E0,3.309459090E-1,-1.942920685E-1,-1.337993622E0
4.048622141E0,3.927155733E-1,-1.495599747E-1,-1.184861660E0
4.053652506E0,4.917859435E-1,-7.312297821E-2,-1.037242413E0
4.058682870E0,4.756706953E-1,5.395841599E-2,-8.901906013E-1
4.063692662E0,3.738752007E-1,1.498961449E-1,-8.199539185E-1
4.068723027E0,3.495838344E-1,2.144746780E-1,-6.635384560E-1
4.073753391E0,3.095440865E-1,2.928471565E-1,-6.480746269E-1
4.078783756E0,2.278519273E-1,3.440184593E-1,-6.535153389E-1
4.083814120E0,5.720871687E-2,4.183459282E-1,-6.511602402E-1
4.088844485E0,-8.490505815E-2,5.657291412E-1,-6.264195442E-1
4.093870006E0,-2.155492902E-1,6.781096458E-1,-6.245541573E-1
4.098900370E0,-3.160025179E-1,7.432527542E-1,-5.472135544E-1
4.103930787E0,-4.178975523E-1,8.140196800E-1,-5.549287796E-1
4.108961152E0,-4.763450027E-1,8.306775093E-1,-5.400137901E-1
4.113991516E0,-5.491856933E-1,8.865704536E-1,-4.594168663E-1
4.119021881E0,-6.059838533E-1,9.292263985E-1,-5.024166107E-1
4.124063287E0,-5.969032049E-1,1.014142990E0,-5.137076378E-1
4.129093652E0,-6.156022549E-1,1.019484997E0,-4.983067513E-1
4.134124016E0,-5.853236914E-1,1.057884216E0,-4.730525017E-1
4.139154381E0,-5.755510330E-1,1.036276340E0,-4.238228798E-1
4.144184745E0,-6.388018131E-1,1.005263329E0,-2.336330414E-1
4.149215110E0,-8.018445969E-1,1.008145332E0,3.732204437E-2
4.154244745E0,-9.716503024E-1,1.059286594E0,3.075256348E-1
4.159275110E0,-1.175066829E0,1.053258896E0,5.076408386E-1
4.164305475E0,-1.392964363E0,9.972133636E-1,6.808919907E-1
4.169335839E0,-1.646850228E0,9.438552856E-1,7.890310287E-1
4.174366204E0,-1.850064993E0,8.932061195E-1,9.469923973E-1
4.179396568E0,-2.057701826E0,7.949891090E-1,1.126032829E0
4.184422089E0,-2.207191706E0,6.611843109E-1,1.261590004E0
4.189452454E0,-2.376759052E0,5.443181992E-1,1.423268318E0
4.194482818E0,-2.517452240E0,4.561343193E-1,1.556224346E0
4.199513183E0,-2.637753248E0,3.943614960E-1,1.540791988E0
4.204543548E0,-2.762810230E0,3.683571815E-1,1.547218323E0
4.209573912E0,-2.941969872E0,4.212512970E-1,1.529960155E0
4.214595579E0,-3.114151955E0,5.026168823E-1,1.362355709E0
4.219625943E0,-3.184473276E0,5.284457207E-1,1.186008453E0
4.224656360E0,-3.199710846E0,4.482684135E-1,1.006016254E0
4.229686725E0,-3.159896135E0,3.840756416E-1,9.708905220E-1
4.234717141E0,-3.118347883E0,3.095808029E-1,9.081687927E-1
4.239747506E0,-3.130940199E0,2.512941360E-1,8.034081459E-1
4.244793756E0,-3.196084976E0,3.170700073E-1,6.684684753E-1
4.249824120E0,-3.295999050E0,5.066924095E-1,4.890642166E-1
4.254854537E0,-3.359822273E0,7.412214279E-1,1.837587357E-1
4.259884902E0,-3.379024267E0,9.015350342E-1,-2.767896652E-2
4.264915318E0,-3.359651804E0,9.734992981E-1,-1.096615791E-1
4.269945631E0,-3.310867548E0,1.048515797E0,-9.633159637E-2
4.274960787E0,-3.237173080E0,9.808773994E-1,-7.676172256E-2
4.279991152E0,-3.156490088E0,9.025158882E-1,-7.520389557E-2
4.285021568E0,-3.015312433E0,7.490863800E-1,-4.182291031E-2
4.290051933E0,-2.807720661E0,5.976071358E-1,5.153512955E-2
4.295082298E0,-2.639675617E0,4.054541588E-1,1.444697380E-1
4.300112662E0,-2.401772022E0,2.667341232E-1,2.194724083E-1
4.305154381E0,-2.185297728E0,1.871132851E-1,3.474831581E-1
4.310184745E0,-2.110260010E0,9.812545776E-2,4.558043480E-1
4.315215162E0,-2.121068001E0,7.732915878E-2,6.011681557E-1
4.320245527E0,-2.137824297E0,-6.234169006E-3,8.046855927E-1
4.325275943E0,-2.053459644E0,-2.382130623E-1,7.744259834E-1
4.330306256E0,-2.270981789E0,1.084041595E-2,9.729576111E-1
4.335330631E0,-2.647382975E0,5.579233170E-1,1.539544106E0
4.340360995E0,-2.923099279E0,9.671730995E-1,2.196325302E0
4.345391412E0,-3.049607754E0,1.056303978E0,2.690229416E0
4.350421777E0,-2.898422956E0,8.517847061E-1,2.823324680E0
4.355452141E0,-2.432498455E0,5.015439987E-1,2.644879818E0
4.360482558E0,-1.859645963E0,1.198792458E-1,2.455266476E0
4.365501360E0,-1.310446143E0,-2.014875412E-1,2.296646595E0
4.370531725E0,-7.561684847E-1,-4.808902740E-1,2.160585403E0
4.375562141E0,-2.544423938E-1,-7.299747467E-1,2.014969826E0
4.380592506E0,1.217218488E-1,-8.742141724E-1,1.791670799E0
4.385622923E0,4.591826200E-1,-1.020714283E0,1.599398613E0
4.390653287E0,7.507652640E-1,-1.120929241E0,1.453379631E0
4.395695475E0,9.735091329E-1,-1.142765522E0,1.225015640E0
4.400725891E0,9.910624027E-1,-1.163813591E0,9.411258698E-1
4.405756256E0,9.424741864E-1,-8.704943657E-1,6.732501984E-1
4.410786620E0,8.878744841E-1,-6.872868538E-1,3.929338455E-1
4.415817037E0,7.990111709E-1,-5.806460381E-1,1.862916946E-1
4.420847402E0,7.239817381E-1,-4.731669426E-1,4.482269287E-5
4.425900631E0,7.181082964E-1,-4.117770195E-1,-9.466934204E-2
4.430931048E0,6.575428247E-1,-3.620376587E-1,-3.391361237E-2
4.435961412E0,5.645543337E-1,-3.228373528E-1,-6.016540527E-2
4.440991829E0,4.142923951E-1,-3.337888718E-1,-5.186557770E-2
4.446022193E0,2.952574193E-1,-3.436317444E-1,-8.130073547E-2
4.451052558E0,-4.794859886E-2,-2.314567566E-1,-2.759184837E-1
4.456066464E0,-2.042563856E-1,-1.517705917E-1,-1.648292542E-1
4.461096829E0,-5.806927383E-2,-3.738017082E-1,1.936416626E-1
4.466127193E0,2.556622028E-3,-6.685547829E-1,2.051315308E-1
4.471157610E0,-1.565349996E-1,-9.418044090E-1,-8.494281769E-2
4.476188027E0,9.735280275E-2,-1.183358192E0,-1.479649544E-1
4.481218391E0,-7.803666592E-2,-1.301820755E0,-6.450681686E-1
4.486236516E0,1.204487085E-1,-1.425786972E0,-5.238986015E-1
4.491266933E0,5.600434542E-1,-1.281488895E0,-1.233854294E-1
4.496297298E0,3.088912964E-1,-9.075970650E-1,-5.374913216E-1
4.501327714E0,6.683178544E-1,-1.070278168E0,-7.368154526E-1
4.506358079E0,7.321405411E-1,-1.177185059E0,-1.236956596E0
4.511388443E0,1.041631460E0,-1.254580498E0,-1.255862236E0
4.516433079E0,1.216538548E0,-1.328820705E0,-1.447577000E0
4.521463443E0,1.499279141E0,-1.469559193E0,-1.450666904E0
4.526493808E0,1.796323776E0,-1.581226349E0,-1.449515820E0
4.531524225E0,2.004809380E0,-1.554115295E0,-1.520486832E0
4.536554641E0,2.127745628E0,-1.551774025E0,-1.445297718E0
4.541585006E0,2.253663540E0,-1.594546318E0,-1.084353924E0
4.546610318E0,2.311774254E0,-1.535456657E0,-6.758975983E-1
4.551640735E0,2.457915783E0,-1.435731888E0,-4.076299667E-1
4.556671100E0,2.446140289E0,-1.430695534E0,-3.115911484E-1
4.561701516E0,2.263342619E0,-1.502444267E0,-1.614627838E-1
4.566731881E0,1.682435036E0,-1.755185366E0,-3.627061844E-1
4.571762245E0,1.064045668E0,-1.887725830E0,-6.655912399E-1
4.576788704E0,5.118387341E-1,-1.948473454E0,-1.014523506E0
4.581819068E0,-1.167657971E-1,-1.963446856E0,-1.452681541E0
4.586849433E0,-3.384502530E-1,-2.087405920E0,-1.386993408E0
4.591879850E0,-6.167865396E-1,-2.263966799E0,-1.560378551E0
4.596910214E0,-8.845304847E-1,-2.353439093E0,-1.767334938E0
4.601940631E0,-1.288010597E0,-2.249706507E0,-2.314818382E0
4.606989120E0,-1.412163734E0,-2.069712877E0,-2.535433292E0
4.612019485E0,-1.445034742E0,-1.865822315E0,-2.590139866E0
4.617049902E0,-1.493314385E0,-1.670986652E0,-2.591951370E0
4.622080266E0,-1.548155308E0,-1.468298435E0,-2.658240795E0
4.627110631E0,-1.484818578E0,-1.181139469E0,-2.690879345E0
4.632140995E0,-1.338459730E0,-1.005988598E0,-2.735232353E0
4.637155995E0,-1.167473674E0,-8.541779518E-1,-2.760199070E0
4.642186360E0,-9.177905917E-1,-7.375946045E-1,-2.653386593E0
4.647216777E0,-5.900300145E-1,-7.276616096E-1,-2.561148167E0
4.652247141E0,-2.760594189E-1,-7.692770958E-1,-2.366232395E0
4.657277558E0,-4.102689028E-2,-8.504056931E-1,-2.346402645E0
4.662307923E0,1.154507399E-1,-9.493398666E-1,-2.420411587E0
4.667367298E0,1.908444166E-1,-9.675827026E-1,-2.576672077E0
4.672397662E0,1.098437905E-1,-7.542948723E-1,-2.889843941E0
4.677428027E0,2.877572179E-1,-4.861960411E-1,-2.336378574E0
4.682458443E0,4.053485394E-1,-3.831801414E-1,-1.819216251E0
4.687488808E0,3.577265739E-1,-3.466010094E-1,-2.001017094E0
4.692519173E0,3.736580610E-1,-2.567586899E-1,-2.299685001E0
4.697542298E0,3.892178535E-1,-1.573424339E-1,-2.262630463E0
4.702572714E0,4.746115208E-1,-9.180831909E-2,-2.038156509E0
4.707603079E0,4.512786865E-1,-5.616188049E-3,-1.771897316E0
4.712633495E0,3.817800283E-1,1.632328033E-1,-1.461081982E0
4.717663860E0,4.694986343E-1,2.638792992E-1,-1.174760818E0
4.722694225E0,5.240176916E-1,3.297047615E-1,-1.070466518E0
4.727696725E0,5.703960657E-1,2.761693001E-1,-9.633455276E-1
4.732727089E0,8.110638857E-1,2.510886192E-1,-8.316483498E-1
4.737757506E0,1.228309631E0,2.818169594E-1,-4.619350433E-1
4.742787870E0,1.743980050E0,4.724640846E-1,6.699943542E-2
4.747818287E0,2.307453632E0,7.643337250E-1,6.503076553E-1
4.752848652E0,2.750666380E0,9.293303490E-1,9.916801453E-1
4.757900787E0,2.868528128E0,1.021969318E0,1.034253120E0
4.762931152E0,2.863693714E0,1.008218765E0,1.182822227E0
4.767961568E0,2.804610491E0,9.842009544E-1,1.365458488E0
4.772991933E0,2.632442236E0,9.479994774E-1,1.481608391E0
4.778022350E0,2.269167185E0,9.052901268E-1,1.679487228E0
4.783052714E0,1.850985050E0,9.241452217E-1,1.697700500E0
4.788069120E0,1.434475064E0,9.268422127E-1,1.664666176E0
4.793099485E0,1.059154034E0,9.022169113E-1,1.718540192E0
4.798129850E0,6.953555346E-1,9.397568703E-1,1.808134079E0
4.803160266E0,5.243965387E-1,9.896869659E-1,1.944637299E0
4.808190683E0,6.426520348E-1,8.895096779E-1,2.228126526E0
4.813221048E0,8.127976656E-1,7.949790955E-1,2.419112206E0
4.818260162E0,9.010890722E-1,8.828039169E-1,2.529768944E0
4.823290527E0,1.044921398E0,1.063844204E0,2.698962212E0
4.828320943E0,1.268872380E0,1.356033802E0,2.910334587E0
4.833351308E0,1.551332951E0,1.492507458E0,3.169284821E0
4.838381725E0,1.850334287E0,1.620816708E0,3.531626701E0
4.843412089E0,2.024960041E0,1.631945133E0,3.613327026E0
4.848435370E0,2.143733978E0,1.553966045E0,3.606857300E0
4.853465735E0,2.231554031E0,1.400331974E0,3.637718201E0
4.858496100E0,2.216825724E0,1.160676956E0,3.544268608E0
4.863526516E0,2.071802855E0,9.473242760E-1,3.243511200E0
4.868556933E0,1.902822137E0,7.699093819E-1,3.047140121E0
4.873587298E0,1.724910855E0,6.242742538E-1,2.814014435E0
4.878647818E0,1.639448285E0,4.291920662E-1,2.587702751E0
4.883678183E0,1.528208971E0,1.458988190E-1,2.365090370E0
4.888708548E0,1.409984827E0,-2.552452087E-1,1.975787163E0
4.893738964E0,1.359640718E0,-6.930923462E-1,1.512069702E0
4.898769329E0,1.295018077E0,-1.031407356E0,1.020209312E0
4.903799693E0,1.249553919E0,-1.280073166E0,6.944541931E-1
4.908799120E0,1.192468166E0,-1.525613308E0,3.075041771E-1
4.913829485E0,1.349987507E0,-1.647416592E0,8.792161942E-2
4.918859902E0,1.773420334E0,-1.631675720E0,1.315627098E-1
4.923890266E0,2.169078350E0,-1.353447914E0,2.289023399E-1
4.928920683E0,2.538821459E0,-1.049860001E0,2.474374771E-1
4.933951048E0,2.951707363E0,-7.398629189E-1,2.938737869E-1
4.938984120E0,3.392420053E0,-4.785108566E-1,3.602914810E-1
4.944014485E0,4.035119057E0,-2.804183960E-1,4.101958275E-1
4.949044902E0,4.912817478E0,-4.804039001E-2,4.097409248E-1
4.954075266E0,5.709978104E0,1.410264969E-1,3.419699669E-1
4.959105683E0,5.961520195E0,1.919288635E-1,2.859549522E-1
4.964136048E0,5.557554245E0,2.467536926E-2,4.359555244E-1
4.969159537E0,4.392398834E0,-3.690381050E-1,7.264890671E-1
4.974189902E0,2.915356398E0,-8.127517700E-1,1.118953228E0
4.979220318E0,1.534833670E0,-1.146741390E0,1.515349865E0
4.984250683E0,3.735513687E-1,-1.338407516E0,1.674249649E0
4.989281048E0,-5.399631262E-1,-1.489048004E0,1.557064056E0
4.994311464E0,-1.153501153E0,-1.501132488E0,1.246404171E0
4.999351881E0,-1.414055347E0,-1.550217152E0,9.681558609E-1
5.004382298E0,-1.455329537E0,-1.517255306E0,5.961046219E-1
5.009412662E0,-1.253127098E0,-1.450899601E0,2.477216721E-1
5.014443079E0,-9.599084258E-1,-1.375608444E0,-2.934455872E-3
5.019473443E0,-7.163379192E-1,-1.397079945E0,-1.894907951E-1
5.024503808E0,-4.983432293E-1,-1.450901508E0,-1.684145927E-1
5.029547662E0,-2.867896557E-1,-1.460498810E0,-2.558536530E-1
5.034578027E0,-1.148668528E-1,-1.499962807E0,-4.399394989E-1
5.039608391E0,3.974568844E-2,-1.504453659E0,-6.658682823E-1
5.044638027E0,1.136010885E-1,-1.516326427E0,-8.865108490E-1
5.049676360E0,1.294674873E-1,-1.484460354E0,-1.097923279E0
5.054700839E0,8.093965054E-2,-1.402744293E0,-1.286841393E0
5.059731152E0,-5.223798752E-2,-1.368215561E0,-1.437551498E0
5.064761568E0,-1.609973907E-1,-1.331471920E0,-1.525067329E0
5.069791985E0,-3.350809813E-1,-1.265105724E0,-1.433221340E0
5.074822350E0,-5.504641533E-1,-1.259247303E0,-1.394857407E0
5.079852714E0,-7.023905516E-1,-1.344322205E0,-1.343177319E0
5.084883079E0,-7.938529849E-1,-1.385921955E0,-1.223232269E0
5.089902818E0,-8.470724821E-1,-1.453769922E0,-1.113688469E0
5.094933235E0,-7.999422550E-1,-1.538761377E0,-1.052414417E0
5.099963600E0,-7.411545515E-1,-1.636734724E0,-9.766521454E-1
5.104993964E0,-6.851805449E-1,-1.716953993E0,-7.640743256E-1
5.110024329E0,-5.842194557E-1,-1.720119715E0,-6.154403687E-1
5.115054745E0,-4.980448484E-1,-1.723363638E0,-5.734033585E-1
5.120433912E0,-3.755763769E-1,-1.712406158E0,-5.221610069E-1
5.125464277E0,-1.744611263E-1,-1.708206892E0,-5.129504204E-1
5.130494641E0,1.212379932E-1,-1.670355558E0,-5.138902664E-1
5.135525058E0,4.094772339E-1,-1.683700085E0,-4.335794449E-1
5.140555423E0,5.879297256E-1,-1.679622650E0,-4.631252289E-1
5.145585839E0,4.780128002E-1,-1.702061415E0,-6.355185509E-1
5.150627141E0,4.288589954E-2,-1.727715731E0,-9.288582802E-1
5.155657506E0,-4.183089733E-2,-1.647126675E0,-8.666028976E-1
5.160687923E0,-2.211153507E-1,-1.704354048E0,-8.149161339E-1
5.165718287E0,-6.284912825E-1,-1.784186125E0,-8.931255341E-1
5.170748652E0,-1.042654634E0,-1.845657825E0,-1.072241783E0
5.175779068E0,-1.278000593E0,-1.885996342E0,-1.156008720E0
5.180797818E0,-1.315352440E0,-1.720567226E0,-1.108583450E0
5.185828235E0,-1.380591273E0,-1.454478979E0,-1.298393726E0
5.190858548E0,-1.520420790E0,-1.219125748E0,-1.770688534E0
5.195888964E0,-1.673278809E0,-1.098175764E0,-2.616364002E0
5.200919381E0,-1.596607804E0,-8.203139305E-1,-2.998518467E0
5.205949745E0,-8.165144920E-1,-5.714120865E-1,-2.339023590E0
5.211024902E0,-3.798911572E-1,-4.274616241E-1,-2.352190971E0
5.216055266E0,-2.806990743E-1,-2.519769669E-1,-2.472694874E0
5.221085631E0,-1.153851748E-1,-1.792879105E-1,-2.549958229E0
5.226116048E0,5.151897669E-2,-1.328735352E-1,-2.567490101E0
5.231146412E0,2.041955590E-1,-1.055588722E-1,-2.417765141E0
5.236176829E0,3.012649417E-1,-1.160984039E-1,-2.127399445E0
5.241174745E0,2.983179688E-1,-1.355381012E-1,-1.904654026E0
5.246205058E0,2.473059297E-1,-1.228880882E-1,-1.716024876E0
5.251235475E0,8.974105120E-2,-3.218555450E-2,-1.576005936E0
5.256265839E0,-1.336098909E-1,1.871094704E-1,-1.410577774E0
5.261296256E0,-4.516401291E-1,5.302019119E-1,-1.171980858E0
5.266326620E0,-5.891923904E-1,8.312587738E-1,-9.317622185E-1
5.271353912E0,-8.049820662E-1,9.223546982E-1,-6.154899597E-1
5.276384277E0,-1.032795191E0,1.195563793E0,-2.922954559E-1
5.281414641E0,-1.083847523E0,1.498865604E0,-9.083557129E-2
5.286445058E0,-1.204776287E0,1.750163555E0,1.568546295E-1
5.291475423E0,-1.187711716E0,2.116388321E0,5.299758911E-1
5.296505839E0,-1.232784748E0,2.316750050E0,8.972177505E-1
5.301199433E0,-1.271062136E0,2.460580349E0,9.982805252E-1
5.306229745E0,-1.217986822E0,2.568683147E0,1.021616936E0
5.311260162E0,-1.183273554E0,2.690184116E0,1.044435501E0
5.316290579E0,-1.053391337E0,3.030047417E0,9.593906403E-1
5.321320943E0,-8.149242997E-1,3.405130863E0,7.550783157E-1
5.326351308E0,-6.077037454E-1,3.663249493E0,7.456951141E-1
5.331360370E0,-1.678670943E-1,3.531834126E0,6.558332443E-1
5.336390735E0,3.729806542E-1,4.002983093E0,7.001981735E-1
5.341421152E0,2.444706559E-1,3.310233593E0,1.410971642E0
5.346451516E0,-6.749118567E-1,2.490368366E0,1.315410614E0
5.351481933E0,-6.851198077E-1,1.763536453E0,6.153650284E-1
5.356512298E0,9.077364206E-2,1.174942493E0,3.364267349E-1
5.361542141E0,7.066786289E-2,1.317966938E0,1.656246185E-1
5.366572506E0,-5.082428455E-1,1.634598732E0,1.361560822E-1
5.371602923E0,-1.245953918E0,2.599905491E0,5.977811813E-1
5.376633287E0,-2.036249399E0,3.455128193E0,1.521343231E0
5.381663652E0,-2.546254635E0,2.109876156E0,2.001867294E0
5.386694016E0,-2.495484114E0,1.409276485E0,2.097182274E0
5.391727662E0,-1.701030731E0,6.824045181E-1,1.989581108E0
5.396758027E0,-1.088138938E0,3.689742088E-1,1.887659073E0
5.401788391E0,-1.233527899E0,8.377475739E-1,1.533745766E0
5.406818808E0,-1.784829378E0,1.744083405E0,1.529374123E0
5.411849225E0,-1.904553175E0,1.490393162E0,2.092522621E0
5.416879589E0,-1.962211370E0,1.338689804E0,2.715620995E0
5.421916829E0,-2.240127087E0,1.563488960E0,2.896604538E0
5.426947193E0,-2.357324600E0,1.568346500E0,2.669647217E0
5.431977610E0,-2.189410448E0,1.489180088E0,2.353700638E0
5.437007975E0,-2.040795803E0,1.483242512E0,2.190785408E0
5.442038391E0,-1.880053043E0,1.265305996E0,2.171362877E0
5.447068704E0,-1.757500410E0,8.712706566E-1,2.309769630E0
5.452080995E0,-1.979314566E0,6.960291862E-1,2.512572289E0
5.457111360E0,-2.230337858E0,8.158578873E-1,2.451846123E0
5.462141777E0,-2.318415880E0,1.039713860E0,2.316290855E0
5.467172141E0,-2.274029016E0,1.351440907E0,2.320666313E0
5.472202558E0,-2.057110310E0,1.507368565E0,2.557690620E0
5.477232923E0,-1.724879742E0,1.536806583E0,2.758895874E0
5.482277766E0,-1.289626956E0,1.490670681E0,2.715973854E0
5.487308131E0,-9.284445047E-1,1.315086365E0,2.641644478E0
5.492338548E0,-6.141497493E-1,1.011429310E0,2.664498329E0
5.497368912E0,-3.564369678E-1,5.241289139E-1,2.929525375E0
5.502399277E0,-4.438692331E-2,1.424083710E-1,3.117353439E0
5.507429641E0,1.073403060E-1,3.805856705E-1,2.731593132E0
5.512443756E0,2.847576141E-2,1.795382500E-1,3.383430481E0
5.517474120E0,-2.279401571E-1,-5.661129951E-1,3.969306946E0
5.522504537E0,-5.618681908E-1,-1.216410398E0,4.203360558E0
5.527534902E0,-5.095591545E-1,-1.387078285E0,5.033851624E0
5.532565318E0,-5.178180933E-1,-1.531002522E0,5.420702934E0
5.537595683E0,-7.883017063E-1,-1.628624201E0,5.501881599E0
5.542652558E0,-1.088216186E0,-1.604334831E0,5.716051102E0
5.547682923E0,-1.365441442E0,-1.457855463E0,5.769827843E0
5.552713339E0,-1.704830050E0,-1.248485088E0,5.338907242E0
5.557743704E0,-1.910056472E0,-9.994938374E-1,4.797966003E0
5.562774120E0,-2.048484087E0,-7.890710831E-1,4.272353172E0
5.567804485E0,-2.096007586E0,-9.081907272E-1,3.533169746E0
5.572818183E0,-1.829056025E0,-9.120750427E-1,3.191119194E0
5.577848548E0,-1.890276670E0,-1.021606445E0,2.844131470E0
5.582878964E0,-2.104903221E0,-1.207801342E0,2.236217499E0
5.587909329E0,-2.120044708E0,-1.280918360E0,1.654582977E0
5.592939745E0,-1.979498148E0,-1.326680660E0,1.079906464E0
5.597970110E0,-1.687096715E0,-1.415843248E0,4.423246384E-1
5.603018027E0,-1.570448995E0,-1.523463726E0,-5.041408539E-2
5.608048391E0,-1.596385479E0,-1.531092644E0,-4.733228683E-1
5.613078756E0,-1.577594995E0,-1.521801949E0,-1.066184521E0
5.618109173E0,-1.201048851E0,-1.394340992E0,-1.547001362E0
5.623139537E0,-7.788610458E-1,-1.265756607E0,-1.657824516E0
5.628169902E0,-6.197235584E-1,-1.269884109E0,-1.817946434E0
5.633192193E0,-5.648151636E-1,-1.243879795E0,-1.883826733E0
5.638222558E0,-3.252008557E-1,-1.238543510E0,-1.895938873E0
5.643252923E0,-1.719605923E-2,-1.321193218E0,-1.930632114E0
5.648283287E0,1.516637802E-1,-1.522997856E0,-2.109668732E0
5.653313704E0,9.446060658E-2,-1.741034508E0,-2.394426346E0
5.658344068E0,1.088307500E-1,-1.883785248E0,-2.679877758E0
5.663368600E0,2.898969054E-1,-1.983770609E0,-2.952470779E0
5.668398964E0,8.363088965E-1,-2.415217876E0,-3.380852222E0
5.673429381E0,2.019908667E0,-3.468050957E0,-3.853930950E0
5.678459745E0,2.821910858E0,-3.076425791E0,-3.396177769E0
5.683490162E0,2.301334143E0,-2.635803223E0,-2.983010292E0
5.688520527E0,1.319042683E0,-2.572917461E0,-2.339954853E0
5.693557037E0,6.975942254E-1,-2.445182562E0,-1.550289154E0
5.698587402E0,4.218451977E-1,-2.334628105E0,-8.479881287E-1
5.703617766E0,4.511289895E-1,-2.174909592E0,-3.209686279E-1
5.708648183E0,5.476855636E-1,-1.880607843E0,3.617763519E-2
5.713678600E0,5.874576569E-1,-1.725216389E0,1.881084442E-1
5.718708964E0,5.514299273E-1,-1.640004635E0,3.844461441E-1
5.723744641E0,4.215752184E-1,-1.484330177E0,4.030351639E-1
5.728775006E0,2.646102607E-1,-1.378448486E0,1.032733917E-1
5.733805423E0,3.835018277E-1,-1.406025887E0,-2.403736115E-2
5.738835787E0,6.749840379E-1,-1.512013912E0,-1.253700256E-2
5.743866204E0,7.980217934E-1,-1.584296703E0,-1.061697006E-1
5.748896568E0,6.514387727E-1,-1.785928249E0,-4.314308167E-1
5.753911464E0,4.724213779E-1,-2.028496027E0,-8.802189827E-1
5.758941829E0,2.669649124E-1,-2.163311243E0,-1.385622501E0
5.763972245E0,1.515038013E-1,-2.357010603E0,-1.816685677E0
5.769002610E0,2.374159694E-1,-2.218440056E0,-2.136009693E0
5.774033027E0,3.250825703E-1,-2.086528063E0,-2.313580990E0
5.779063391E0,5.378869772E-1,-2.226495981E0,-2.761399269E0
5.784108287E0,7.746968269E-1,-2.501984596E0,-3.285011292E0
5.789138652E0,1.085030198E0,-3.025604725E0,-3.955657959E0
5.794169068E0,1.515938163E0,-2.937686920E0,-3.811438560E0
5.799199433E0,1.376646280E0,-2.566403151E0,-3.781897545E0
5.804229798E0,7.176745534E-1,-2.303721428E0,-4.137852669E0
5.809260214E0,1.866836548E-1,-2.105428696E0,-4.487185478E0
5.814277870E0,8.519536257E-2,-1.903614044E0,-4.433241844E0
5.819308235E0,1.304435134E-1,-1.613695621E0,-4.235388756E0
5.824338652E0,1.251826882E-1,-1.381204605E0,-4.260139465E0
5.829369016E0,1.224140525E-1,-1.150620937E0,-4.394844055E0
5.834399433E0,1.754034162E-1,-1.096231937E0,-4.352209091E0
5.839429798E0,1.790871620E-1,-9.832558632E-1,-4.144155025E0
5.844460995E0,1.830711961E-1,-8.527712822E-1,-3.772798061E0
5.849491360E0,2.514905334E-1,-6.239881516E-1,-3.259555817E0
5.854521777E0,2.163371444E-1,-4.484858513E-1,-3.243062496E0
5.859552141E0,2.638527751E-1,-3.694682121E-1,-3.097651005E0
5.864582558E0,6.855003238E-1,-2.441625595E-1,-2.205092430E0
5.869612923E0,1.091901183E0,-2.657141685E-1,-9.729194641E-1
5.874653391E0,1.291727066E0,-2.817893028E-1,-3.578968048E-1
5.879683756E0,1.129783392E0,4.005432129E-5,4.133310318E-1
5.884714173E0,8.687362671E-1,1.130490303E-1,8.631839752E-1
5.889744537E0,6.798477769E-1,5.039854050E-1,1.391938210E0
5.894774954E0,4.697045088E-1,8.977355957E-1,1.732914925E0
5.899805266E0,2.573761940E-1,1.153469086E0,1.882961273E0
5.904826933E0,6.023836136E-2,1.369580269E0,2.083234787E0
5.909857350E0,-2.168635130E-1,1.642504215E0,2.282422066E0
5.914887714E0,-2.913527489E-1,1.747696400E0,2.278635025E0
5.919918079E0,-2.207562923E-1,1.851521969E0,2.264691353E0
5.924948495E0,-1.168800592E-1,1.913800716E0,2.204018593E0
5.929978860E0,4.418897629E-2,1.907079697E0,2.007501602E0
5.935035423E0,2.489498854E-1,1.892319202E0,1.696552277E0
5.940065787E0,3.792291880E-1,1.856460094E0,1.309363365E0
5.945096152E0,3.484725952E-1,1.774023056E0,7.456741333E-1
5.950126568E0,3.939139843E-1,1.507609844E0,3.382549286E-1
5.955156933E0,6.157814264E-1,1.230926037E0,2.447376251E-1
5.960187298E0,2.343225479E-1,9.014735222E-1,7.225131989E-2
5.965188079E0,2.336480618E-1,3.669033051E-1,-5.330495834E-1
5.970218495E0,1.792787313E-1,2.044067383E-1,-4.914999008E-1
5.975248860E0,1.084789872E0,1.523842812E-1,-4.801464081E-1
5.980279277E0,2.416977406E0,-1.263184786E0,-5.912914276E-1
5.985309641E0,4.069889069E0,-1.391722441E0,9.005680084E-1
5.990340006E0,4.041955471E0,1.464633942E-1,1.017268181E0
5.995379381E0,2.356823444E0,1.174902916E0,-3.892002106E-1
6.000409745E0,5.891771317E-1,1.369075775E0,-1.176469326E0
6.005440110E0,1.058602333E-2,1.205529690E0,-9.282789230E-1
6.010470527E0,4.696366191E-1,9.872717857E-1,-4.797935486E-1
6.015500943E0,1.157771349E0,6.327843666E-1,-1.207742691E-1
6.020531308E0,1.391985416E0,5.884346962E-1,5.757322311E-1
6.025553704E0,1.053589106E0,9.665083885E-1,1.335563660E0
6.030584068E0,3.339779377E-1,1.622654438E0,1.812863350E0
6.035614433E0,-1.967420578E-1,2.156609058E0,2.319900513E0
6.040644850E0,-1.081415415E-1,2.189503670E0,3.047179222E0
6.045675266E0,4.720642567E-1,1.813945293E0,3.776359558E0
6.050705631E0,8.761683702E-1,1.434460163E0,4.162078857E0
6.055742558E0,9.843349457E-1,1.360661507E0,4.023639679E0
6.060772923E0,8.305962682E-1,1.417146206E0,3.572496414E0
6.065803339E0,6.779924631E-1,1.455942154E0,3.093851089E0
6.070833704E0,6.253973842E-1,1.449990273E0,2.587054253E0
6.075864120E0,5.158538818E-1,1.375125885E0,1.816373825E0
6.080894485E0,2.767002583E-1,1.259823322E0,1.132600784E0
6.085948652E0,-2.018064737E0,2.328205109E-1,1.948156357E-1
6.090979120E0,-6.290923119E0,-1.460124731E0,-6.833171844E-2
6.096009589E0,-4.185619354E0,-1.606422424E0,3.377447128E-1
6.101040058E0,-4.517045021E-1,-1.139211655E0,1.196226120E0
6.106070527E0,1.707204580E0,-1.103591442E0,2.513950348E0
6.111100995E0,2.900403976E0,-9.558310509E-1,3.371871948E0
6.116111933E0,3.366776228E0,-4.790349007E-1,3.714236259E0
6.121142402E0,3.456713200E0,-7.396507263E-2,3.629187584E0
6.126172818E0,3.263013124E0,2.264499664E-2,3.465064049E0
6.131203339E0,2.824142694E0,-3.859663010E-2,3.273214340E0
6.136233756E0,2.715037823E0,-5.010318756E-2,3.327633858E0
6.141264225E0,2.871469259E0,-1.958131790E-1,3.678154945E0
6.146311360E0,2.672806501E0,-4.163646698E-1,4.217306137E0
6.151341829E0,1.961699128E0,-5.313553810E-1,4.620318413E0
6.156372298E0,8.363224268E-1,-7.205686569E-1,4.687820435E0
6.161402766E0,-1.352835000E-1,-8.573250771E-1,4.873836517E0
6.166433183E0,-7.827708721E-1,-1.190522194E0,4.954683304E0
6.171463704E0,-1.460308909E0,-1.653046608E0,4.850725174E0
6.176477662E0,-2.281151772E0,-2.043429852E0,4.726242065E0
6.181508079E0,-2.847305059E0,-2.229258060E0,4.503284454E0
6.186538548E0,-2.957194090E0,-2.346316099E0,4.233383179E0
6.191569068E0,-2.899401188E0,-2.519739151E0,4.087081909E0
6.196599485E0,-2.268678665E0,-2.568174601E0,3.928415298E0
6.201629954E0,-1.613866448E0,-2.884367704E0,3.511344910E0
6.206635475E0,-1.584448934E0,-2.914740801E0,2.962831497E0
6.211665943E0,-2.065808058E0,-3.039027691E0,1.892621040E0
6.216696412E0,-2.406002998E0,-3.113718987E0,1.070569992E0
6.221726881E0,-2.939444542E0,-3.226186991E0,4.002199173E-1
6.226757350E0,-2.752310753E0,-3.230893850E0,-2.486877441E-1
6.231787818E0,-1.944982409E0,-3.088265419E0,-8.766632080E-1
6.236822870E0,-8.965539932E-1,-3.163173676E0,-1.694883347E0
6.241853339E0,5.267112255E-1,-3.156831741E0,-2.103945732E0
6.246883756E0,2.095960855E0,-2.879203320E0,-2.540849686E0
6.251914225E0,2.446016312E0,-2.262424707E0,-3.306008816E0
6.256944693E0,2.616734028E0,-1.631242275E0,-3.967381239E0
6.261975162E0,3.287336826E0,-1.188343525E0,-4.585797310E0
6.267022506E0,4.498365402E0,-6.036610603E-1,-4.785870552E0
6.272052923E0,5.589284897E0,-3.342103958E-2,-4.542249680E0
6.277083391E0,5.879334450E0,3.732986450E-1,-4.518216133E0
6.282113860E0,5.575482368E0,6.551480293E-1,-4.570587158E0
6.287144277E0,5.165174484E0,5.421500206E-1,-4.704379082E0
6.292174745E0,4.186800003E0,-1.969194412E-1,-5.142659187E0
6.297224537E0,1.663069129E0,-1.196696281E0,-5.389223099E0
6.302254954E0,-1.374704838E-1,-1.871240139E0,-4.506229401E0
6.307285423E0,-7.060039043E-2,-1.897932529E0,-3.340927124E0
6.312315891E0,1.921656132E-1,-1.775097847E0,-2.838201523E0
6.317346360E0,1.587069035E-1,-1.894558907E0,-2.529487133E0
6.322376829E0,1.644380093E-1,-2.022276878E0,-2.117870331E0
6.327405839E0,2.244279385E-1,-2.158573151E0,-1.634487152E0
6.332436256E0,1.433877945E-1,-2.272820473E0,-1.148006439E0
6.337466725E0,-3.518044949E-2,-2.267755032E0,-7.600383759E-1
6.342497193E0,-2.362307310E-1,-2.138937473E0,-6.325283051E-1
6.347527662E0,-3.736419678E-1,-2.006102562E0,-4.876122475E-1
6.352558131E0,-4.905740023E-1,-1.988564014E0,-3.470621109E-1
6.357577558E0,-8.243681192E-1,-2.012175560E0,-4.474315643E-1
6.362608027E0,-7.527830601E-1,-1.734428883E0,-1.043591499E-1
6.367638495E0,-9.469820261E-1,-1.749755383E0,1.464934349E-1
6.372668964E0,-1.134415388E0,-1.793176174E0,7.912364006E-1
6.377699381E0,-2.829496861E-1,-1.799784660E0,2.202244759E0
6.382729850E0,-5.682657957E-1,-1.948053360E0,2.049235344E0
6.387773131E0,-1.082223892E0,-1.772594929E0,1.277713299E0
6.392803548E0,-9.460881948E-1,-1.520283222E0,8.356900215E-1
6.397834016E0,-6.636029482E-1,-1.241654873E0,2.581963539E-1
6.402864485E0,-5.428825617E-1,-9.817309380E-1,-4.934673309E-1
6.407894954E0,-3.926273584E-1,-9.328813553E-1,-1.266976833E0
6.412925423E0,-3.184425831E-2,-1.102298737E0,-1.918361664E0
6.417919745E0,3.891201019E-1,-1.255535126E0,-2.277857780E0
6.422950214E0,6.787234545E-1,-1.269567966E0,-2.488322258E0
6.427980683E0,8.376688957E-1,-1.235305786E0,-2.562129498E0
6.433011100E0,9.836354256E-1,-1.176741123E0,-2.513790131E0
6.438041568E0,1.004482627E0,-1.046388626E0,-2.465181828E0
6.443072037E0,5.899215937E-1,-8.898406029E-1,-2.310985565E0
6.448103183E0,4.019998312E-1,-7.452354431E-1,-2.086887360E0
6.453133652E0,8.576786518E-2,-8.563618660E-1,-2.581846237E0
6.458164120E0,-9.514365792E-1,-1.309705734E0,-3.787126541E0
6.463194589E0,1.829344630E0,-8.154230118E-1,-2.212948322E0
6.468225006E0,3.118029118E0,-3.280587196E-1,-2.262748241E0
6.473255475E0,1.735415697E0,-4.803996086E-1,-2.581851482E0
6.478297975E0,-8.961641788E-2,-7.370829582E-1,-2.631856918E0
6.483328443E0,-7.998782396E-1,-6.578106880E-1,-2.294533253E0
6.488358912E0,-3.928832412E-1,-1.608119011E-1,-1.126742363E0
6.493389381E0,-4.007677436E-1,3.724737167E-1,-3.664274216E-1
6.498419798E0,-3.256131411E-1,6.292486191E-1,2.946538925E-1
6.503450266E0,-6.710546017E-1,1.068076134E0,8.408746719E-1
6.508469329E0,-8.418694139E-1,1.403316975E0,1.162853241E0
6.513499798E0,-8.556382656E-1,1.605797768E0,1.225101471E0
6.518530266E0,-7.407851219E-1,1.714288235E0,1.096757889E0
6.523560735E0,-4.886431396E-1,1.837074757E0,9.400510788E-1
6.528591152E0,-3.766483665E-1,2.144169331E0,6.947622299E-1
6.533621620E0,-4.099479020E-1,2.518723011E0,4.728231430E-1
6.538679798E0,-4.684662223E-1,2.717629910E0,2.184000015E-1
6.543710214E0,-3.679997325E-1,2.748833179E0,2.206020355E-1
6.548740683E0,-1.375457197E-1,2.649976730E0,3.432760239E-1
6.553771152E0,1.418560743E-2,2.511261463E0,1.681575775E-1
6.558801620E0,7.628175616E-2,2.402308941E0,-3.184127808E-2
6.563832089E0,1.815535724E-1,2.429077625E0,-1.017360687E-1
6.568849745E0,2.207311094E-1,2.395452499E0,-1.112785339E-1
6.573880214E0,2.337070256E-1,2.262837410E0,2.340984344E-2
6.578910683E0,2.462844551E-2,2.229749203E0,1.060819626E-1
6.583941100E0,-1.682337373E-1,2.427262783E0,3.835296631E-1
6.588971568E0,-2.675916553E-1,2.491032600E0,6.692066193E-1
6.594002037E0,-3.871336579E-1,2.406340122E0,9.850149155E-1
6.599021464E0,-5.799935460E-1,2.261560917E0,1.209136009E0
6.604051933E0,-7.482444644E-1,2.159660339E0,1.234024048E0
6.609082402E0,-8.005940914E-1,2.024788857E0,1.212523460E0
6.614112870E0,-8.687000275E-1,2.056393147E0,1.249403000E0
6.619143287E0,-9.838169813E-1,2.113845825E0,1.413478851E0
6.624173756E0,-1.342609763E0,1.989138603E0,1.558562279E0
6.629217454E0,-1.497735023E0,1.811877728E0,1.718075752E0
6.634247923E0,-1.437610388E0,1.571289539E0,1.726166725E0
6.639278391E0,-1.391389370E0,1.363976479E0,1.620727539E0
6.644308860E0,-1.422277331E0,1.281493187E0,1.511452675E0
6.649339277E0,-1.459954500E0,1.402445793E0,1.609007835E0
6.654369745E0,-1.634283304E0,1.565332890E0,1.839692116E0
6.659388287E0,-1.814067245E0,1.757295132E0,2.003030777E0
6.664418756E0,-1.868220091E0,1.860611916E0,2.020552635E0
6.669449225E0,-1.939697862E0,2.045140743E0,1.959529877E0
6.674479693E0,-2.191180706E0,2.284404755E0,1.767522812E0
6.679510110E0,-2.464759827E0,2.368199348E0,1.731574059E0
6.684540579E0,-2.550241232E0,2.345114708E0,1.724385262E0
6.689578339E0,-2.203872204E0,2.222322941E0,1.985346794E0
6.694608808E0,-1.600274563E0,1.879570484E0,2.119932175E0
6.699639277E0,-1.093447566E0,1.404763222E0,1.966043472E0
6.704669745E0,-5.981510878E-1,1.101278782E0,1.983453751E0
6.709700162E0,-1.744036078E-1,8.513531685E-1,2.370433807E0
6.714730631E0,-3.504851460E-1,1.293077469E0,2.401908875E0
6.719754433E0,-3.459317684E-1,1.559309483E0,2.274270058E0
6.724784902E0,-5.226723552E-1,1.629431248E0,2.491978645E0
6.729815370E0,-7.414507270E-1,1.698595047E0,2.683150291E0
6.734845839E0,-1.038953185E0,1.672202587E0,3.019330025E0
6.739876256E0,-1.127095103E0,1.505581379E0,3.495225430E0
6.744906725E0,-1.212340355E0,1.395259857E0,3.981724739E0
6.749932037E0,-1.196536779E0,1.286365032E0,4.500512600E0
6.754962506E0,-1.256266356E0,1.129097462E0,4.781141281E0
6.759992975E0,-1.218670249E0,9.951386452E-1,5.034512043E0
6.765023391E0,-1.084122658E0,9.387440681E-1,5.622554302E0
6.770053860E0,-1.111757755E0,8.240175247E-1,6.322841644E0
6.775084329E0,-1.242378831E0,5.023231506E-1,5.222774506E0
6.780146568E0,-1.018675089E0,4.082612991E-1,4.982415676E0
6.785176985E0,-7.776231766E-1,2.463169098E-1,5.622894764E0
6.790207454E0,-8.097027540E-1,-1.396193504E-1,5.015045166E0
6.795237923E0,-7.827810049E-1,-3.796863556E-1,4.079473019E0
6.800268391E0,-5.469080210E-1,-7.432174683E-1,3.218658447E0
6.805298860E0,9.780085087E-2,-2.747283936E0,1.922298908E0
6.810309433E0,7.563400269E-2,-1.403253078E0,1.253613949E0
6.815339902E0,-6.137847900E-2,-8.523421288E-1,1.532824993E0
6.820370370E0,-1.743191481E-1,-1.302564144E0,8.673582077E-1
6.825400839E0,-5.820367336E-1,-2.175108671E0,-2.930312157E-1
6.830431256E0,-6.525167227E-1,-1.941238403E0,-4.095921516E-1
6.835461725E0,-7.398356199E-1,-1.634380341E0,1.855468750E-2
6.840478287E0,-8.139405251E-1,-1.917721748E0,-3.234105110E-1
6.845508756E0,-9.490665197E-1,-2.198678493E0,-7.964110374E-1
6.850539225E0,-1.654340029E-1,-2.321324348E0,2.019717216E0
6.855569693E0,-2.671297789E-1,-2.953958035E0,1.493309021E0
6.860600110E0,-1.539620638E0,-3.248643398E0,-8.640480042E-2
6.865630579E0,-2.446079493E0,-3.093311310E0,-1.048450470E-1
6.870661412E0,-2.329817295E0,-2.671731234E0,4.320430756E-2
6.875691881E0,-1.889070034E0,-2.330848694E0,-3.319315910E-1
6.880722350E0,-1.608546495E0,-2.273173332E0,-9.780702591E-1
6.885752818E0,-1.743328810E0,-2.276660204E0,-1.524280548E0
6.890783235E0,-2.226328373E0,-2.198244810E0,-1.975653648E0
6.895813704E0,-2.114213467E0,-2.342649221E0,-2.002418041E0
6.900851673E0,-5.807508230E-1,-2.523676157E0,-1.592398167E0
6.905915735E0,-1.551477909E-1,-2.335042238E0,-2.407481670E0
6.910946152E0,-7.756676674E-1,-2.557556391E0,-3.594614029E0
6.915976620E0,-6.516449451E-1,-2.617807388E0,-3.545663357E0
6.921007089E0,-2.385237217E-1,-2.439402819E0,-3.263967037E0
6.926037506E0,-6.968402863E-2,-2.414840221E0,-3.380986691E0
6.931068027E0,-3.803801537E-2,-2.258861780E0,-3.234350681E0
6.936055683E0,-8.385729790E-2,-2.026356697E0,-2.834149361E0
6.941086152E0,-2.423281670E-1,-1.837327957E0,-2.507627964E0
6.946116620E0,-3.420720100E-1,-1.700697899E0,-2.300294876E0
6.951147037E0,-1.083621979E-1,-1.510997295E0,-1.721531868E0
6.956177558E0,-1.464486122E-1,-1.610171795E0,-1.324018478E0
6.961208027E0,-2.975041866E-1,-1.678761959E0,-1.059829712E0
6.966256725E0,-3.237493038E-1,-1.574698448E0,-7.472510338E-1
6.971287193E0,-4.504117966E-1,-1.371586800E0,-5.440711975E-1
6.976317662E0,-6.715185642E-1,-1.191012383E0,-5.291581154E-1
6.981348131E0,-7.192456722E-1,-1.063621998E0,-4.154639244E-1
6.986378548E0,-6.877033710E-1,-9.962491989E-1,-8.111572266E-2
6.991409016E0,-6.688667536E-1,-9.413228035E-1,1.178083420E-1
6.996841360E0,-5.531555414E-1,-9.386711121E-1,9.811973572E-2
7.001871777E0,-3.232164383E-1,-1.014985085E0,-6.749916077E-2
7.006902245E0,-5.583596230E-2,-1.207754612E0,-3.865022659E-1
7.011932766E0,4.882261753E-1,-1.203998566E0,-3.469719887E-1
7.016963235E0,8.148102760E-1,-1.392904758E0,-4.056344032E-1
7.021993704E0,8.965013027E-1,-1.535460949E0,-6.891112328E-1
7.026617818E0,1.038149834E0,-1.533949375E0,-8.596043587E-1
7.031648235E0,1.123105764E0,-1.540738106E0,-9.845776558E-1
7.036678704E0,1.139025688E0,-1.563308716E0,-1.137692451E0
7.041709173E0,1.108412743E0,-1.554403305E0,-1.287723064E0
7.046739589E0,1.098680019E0,-1.552916050E0,-1.345902443E0
7.051770110E0,1.112493515E0,-1.537335873E0,-1.393867493E0
7.057188756E0,1.120068312E0,-1.480703831E0,-1.427020550E0
7.062219277E0,1.184704304E0,-1.406843185E0,-1.327817440E0
7.067249693E0,9.713342190E-1,-1.324440956E0,-1.400063992E0
7.072280162E0,6.837446690E-1,-1.127758026E0,-1.306656837E0
7.077310631E0,6.158146858E-1,-1.012786865E0,-1.004831314E0
7.082341100E0,5.257549286E-1,-1.067742348E0,-7.620353699E-1
7.086970527E0,4.935846329E-1,-1.147942066E0,-7.602071762E-1
7.092000995E0,5.398840904E-1,-1.145493984E0,-7.787227631E-1
7.097031464E0,5.519068241E-1,-1.167294979E0,-8.325328827E-1
7.102061933E0,4.597697258E-1,-1.074003696E0,-1.036642551E0
7.107092402E0,3.379333019E-1,-7.865009308E-1,-1.362473488E0
7.112122818E0,1.398963928E-1,-3.721847534E-1,-1.673918724E0
7.117525891E0,-7.107758522E-2,7.236433029E-2,-1.894259453E0
7.122556308E0,-3.221209049E-1,4.513669014E-1,-2.141477585E0
7.127586829E0,-6.029751301E-1,6.901526451E-1,-2.405764580E0
7.132617245E0,-8.073909283E-1,8.559613228E-1,-2.546401024E0
7.137647662E0,-4.167160988E-1,1.207439899E0,-2.295525551E0
7.142678183E0,-3.916893005E-1,1.124477863E0,-2.313506603E0
7.147356777E0,-5.801246166E-1,9.319295883E-1,-2.303824902E0
7.152387193E0,-5.638854504E-1,8.734679222E-1,-1.955725670E0
7.157417662E0,-5.176186562E-1,8.917155266E-1,-1.637338161E0
7.162448131E0,-4.394943714E-1,8.934974670E-1,-1.315091610E0
7.167478600E0,-3.587484360E-1,8.690257072E-1,-9.192056656E-1
7.172509068E0,-3.480010033E-1,8.419036865E-1,-5.663633347E-1
7.177523287E0,-4.966554642E-1,6.777758598E-1,-4.352459908E-1
7.182553756E0,-3.335099220E-1,7.620525360E-1,-2.312164307E-1
7.187584173E0,2.036163807E-1,1.007431984E0,5.815982819E-2
7.192614693E0,1.453602314E-1,1.028088570E0,-5.257081985E-2
7.197645110E0,-3.764128685E-2,1.061282635E0,-2.116889954E-1
7.202675579E0,-1.129884720E-1,1.166775703E0,-2.277579308E-1
7.207728652E0,-1.400828362E-2,1.220243454E0,-3.139500618E-1
7.212759068E0,-3.291749954E-2,1.234488010E0,-4.803466797E-1
7.217789537E0,-1.071860790E-1,1.282049179E0,-5.767927170E-1
7.222820006E0,-1.130738258E-1,1.377935886E0,-5.845413208E-1
7.227850423E0,-1.155369282E-1,1.457869530E0,-6.283435822E-1
7.232880943E0,-2.240214348E-1,1.536528111E0,-6.177535057E-1
7.237884120E0,-3.810837269E-1,1.436981678E0,-4.811344147E-1
7.242914537E0,-4.959282875E-1,1.331435680E0,-4.001760483E-1
7.247945006E0,-1.422717571E-1,1.408489227E0,-2.023777962E-1
7.252975527E0,-1.626517773E-1,1.418714046E0,-1.771321297E-1
7.258005943E0,-3.307292461E-1,1.445837498E0,-9.245157242E-2
7.263036412E0,-3.683118820E-1,1.441875935E0,2.213735580E-1
7.268143443E0,-2.682950497E-1,1.485271454E0,6.185688972E-1
7.273173912E0,-1.392269135E-1,1.439815521E0,9.412059784E-1
7.278204381E0,9.280443192E-2,1.286417961E0,1.340248585E0
7.283234850E0,3.044571877E-1,1.022705555E0,1.789848804E0
7.288265266E0,5.019867420E-1,7.562956810E-1,2.120604515E0
7.293295787E0,6.922619343E-1,5.898609161E-1,2.328194618E0
7.298272923E0,8.775298595E-1,4.824743271E-1,2.446452141E0
7.303303391E0,1.036047935E0,5.314402580E-1,2.457098007E0
7.308333860E0,1.192017317E0,6.142978668E-1,2.307793140E0
7.313364329E0,1.276855707E0,6.756410599E-1,1.915042877E0
7.318394745E0,1.334903002E0,7.390584946E-1,1.484829903E0
7.323425214E0,1.391524792E0,7.231440544E-1,1.019154549E0
7.328413704E0,1.446090460E0,7.239179611E-1,6.009531021E-1
7.333444173E0,1.449555874E0,7.386302948E-1,3.329386711E-1
7.338474641E0,1.411807060E0,8.468050957E-1,1.210107803E-1
7.343505110E0,1.329400301E0,9.895586967E-1,-2.106571198E-2
7.348535527E0,1.246347427E0,1.225376606E0,-2.325978279E-1
7.353566048E0,1.185663700E0,1.399745464E0,-5.309796333E-1
7.358619537E0,1.083999157E0,1.466351509E0,-9.745621681E-1
7.363650006E0,1.043095827E0,1.501710415E0,-1.419037342E0
7.368680475E0,1.107886076E0,1.569448948E0,-1.729360580E0
7.373710943E0,1.148672581E0,1.672955036E0,-1.885185719E0
7.378741360E0,1.348239899E0,1.774107456E0,-1.832346916E0
7.383771829E0,1.576878071E0,1.769396305E0,-1.518694401E0
7.388791777E0,1.738303185E0,1.633945942E0,-8.556632996E-1
7.393822245E0,1.872012138E0,1.509956837E0,-6.027317047E-2
7.398852714E0,1.980829477E0,1.292900085E0,8.282027245E-1
7.403883183E0,1.938127756E0,1.048824310E0,1.738957882E0
7.408913600E0,1.831897497E0,7.817311287E-1,2.613317490E0
7.413944120E0,1.653766155E0,3.955349922E-1,3.485775471E0
7.418983704E0,1.320938349E0,-2.649965286E-1,4.325714111E0
7.424014173E0,1.249562263E0,-8.448886871E-1,5.102564335E0
7.429044589E0,1.557064295E0,-1.320907116E0,6.095180988E0
7.434075110E0,1.720185280E0,-1.718062401E0,6.610791206E0
7.439105527E0,1.730041742E0,-2.061562538E0,6.854253292E0
7.444135995E0,1.517411470E0,-2.356930733E0,6.965266228E0
7.449177766E0,1.340361595E0,-2.525597572E0,6.760244370E0
7.454208235E0,1.225114107E0,-2.570647717E0,6.309458256E0
7.459238704E0,1.050365686E0,-2.466344357E0,5.488915443E0
7.464269173E0,9.420437813E-1,-2.246242046E0,4.415684700E0
7.469299589E0,8.401081562E-1,-2.070720673E0,3.304559708E0
7.474330110E0,7.609305382E-1,-1.889388084E0,2.353366852E0
7.479346725E0,5.814363956E-1,-1.776222706E0,1.549276829E0
7.484377193E0,3.618791103E-1,-1.656833649E0,7.866072655E-1
7.489407662E0,1.549391747E-1,-1.502193928E0,8.416557312E-2
7.494438131E0,2.787661552E-2,-1.395751953E0,-6.039786339E-1
7.499468548E0,-8.372712135E-2,-1.282004833E0,-1.173046112E0
7.504499016E0,-1.944246292E-1,-1.112635136E0,-1.676190376E0
7.509546308E0,-2.134304047E-1,-1.052158833E0,-2.118830204E0
7.514576777E0,-2.130641937E-1,-9.679250717E-1,-2.360629082E0
7.519607245E0,-2.201092243E-1,-8.903989792E-1,-2.545891285E0
7.524637714E0,-2.713818550E-1,-7.759532928E-1,-2.653373241E0
7.529668183E0,-3.581936359E-1,-5.525527000E-1,-2.872161627E0
7.534698652E0,-4.516746998E-1,-2.586102486E-1,-3.032321453E0
7.539711725E0,-5.251566172E-1,-2.309036255E-2,-3.043492556E0
7.544742193E0,-5.976068974E-1,4.375028610E-2,-3.070756912E0
7.549772662E0,-6.189507246E-1,4.017782211E-2,-3.023097754E0
7.554803131E0,-6.205286980E-1,-7.181167603E-2,-2.951004028E0
7.559833548E0,-6.649916172E-1,-2.032656670E-1,-3.003016472E0
7.564864016E0,-6.926792860E-1,-3.439879417E-1,-3.033622265E0
7.569889589E0,-7.564523220E-1,-4.621696472E-1,-2.933484077E0
7.574920058E0,-8.235685825E-1,-6.338291168E-1,-2.820338488E0
7.579950527E0,-8.592020273E-1,-8.035688400E-1,-2.646313190E0
7.584980995E0,-8.565105200E-1,-8.755226135E-1,-2.358934402E0
7.590011412E0,-8.202558756E-1,-9.288520813E-1,-2.008513451E0
7.595041881E0,-7.717279196E-1,-9.930334091E-1,-1.558533669E0
7.600073964E0,-7.109100819E-1,-1.092665195E0,-1.104078293E0
7.605104433E0,-6.836344004E-1,-1.259533882E0,-7.758240700E-1
7.610134902E0,-5.846474171E-1,-1.352723598E0,-6.115088463E-1
7.615165370E0,-4.493434429E-1,-1.367827415E0,-4.553017616E-1
7.620195787E0,-4.517316818E-1,-1.247876644E0,-2.041659355E-1
7.625226256E0,-5.369352102E-1,-1.275771618E0,1.423320770E-1
7.630290110E0,-4.402675629E-1,-1.465672970E0,4.863214493E-1
7.635320527E0,-2.318274975E-1,-1.727356911E0,6.709856987E-1
7.640350995E0,1.174712181E-2,-1.958047390E0,6.536288261E-1
7.645381464E0,2.405219078E-1,-2.136279106E0,5.540366173E-1
7.650411933E0,4.150340557E-1,-2.250578880E0,4.058160782E-1
7.655442350E0,5.648906231E-1,-2.301363945E0,1.396789551E-1
7.660446256E0,6.528387070E-1,-2.224417686E0,-1.964468956E-1
7.665476725E0,6.296732426E-1,-2.020021915E0,-5.094103813E-1
7.670507193E0,5.850703716E-1,-1.793998241E0,-8.590607643E-1
7.675537662E0,5.604782104E-1,-1.570177078E0,-1.176387310E0
7.680568079E0,4.559175968E-1,-1.360649109E0,-1.495017052E0
7.685598548E0,3.915688992E-1,-1.141541004E0,-1.750467777E0
7.690616673E0,2.265589237E-1,-9.390764236E-1,-2.019613266E0
7.695647141E0,2.063608170E-2,-6.954784393E-1,-2.173500061E0
7.700677610E0,-2.287905216E-1,-5.302076340E-1,-2.219558716E0
7.705708079E0,-4.526050091E-1,-3.161525726E-1,-2.179528713E0
7.710738495E0,-7.402771711E-1,-1.082158089E-1,-2.048565388E0
7.715768964E0,-1.054469109E0,1.798114777E-1,-1.960453987E0
7.720805162E0,-1.314356565E0,3.660769463E-1,-1.881513596E0
7.725835631E0,-1.456034899E0,5.225143433E-1,-1.833066940E0
7.730866100E0,-1.613865614E0,6.947336197E-1,-1.738542557E0
7.735896568E0,-1.903405070E0,7.828030586E-1,-1.682039738E0
7.740926985E0,-2.194193363E0,8.592500687E-1,-1.668497086E0
7.745957454E0,-2.370327950E0,1.006360054E0,-1.660057068E0
7.751014173E0,-2.403914690E0,9.902291298E-1,-1.685862541E0
7.756044589E0,-2.424432278E0,1.007426262E0,-1.688611984E0
7.761075058E0,-2.448423386E0,1.074754715E0,-1.742686272E0
7.766105527E0,-2.436940432E0,1.108274937E0,-1.809826374E0
7.771135995E0,-2.496984720E0,1.196340084E0,-1.863718987E0
7.776166464E0,-2.453589678E0,1.216731548E0,-1.913886547E0
7.781178079E0,-2.462049723E0,1.190912724E0,-2.015315533E0
7.786208495E0,-2.392589092E0,1.197910786E0,-1.993458271E0
7.791239016E0,-2.242825985E0,1.203891754E0,-1.965429306E0
7.796269485E0,-2.180483341E0,1.168068409E0,-1.986093998E0
7.801299902E0,-2.176621199E0,1.186111927E0,-2.002702713E0
7.806330318E0,-2.238145113E0,1.167047024E0,-1.835879803E0
7.811360370E0,-2.248669386E0,1.117763996E0,-1.573754311E0
7.816390839E0,-2.151962996E0,7.010450363E-1,-1.699443340E0
7.821421308E0,-1.873022437E0,1.173387051E0,-1.083462238E0
7.826451725E0,-1.894046307E0,1.423161507E0,-8.712549210E-1
7.831482193E0,-1.841680050E0,1.304758549E0,-1.162738800E0
7.836512662E0,-1.468415141E0,1.115262985E0,-1.099439144E0
7.841540162E0,-1.039473534E0,7.897076607E-1,-9.064970016E-1
7.846570631E0,-6.955612898E-1,6.198830605E-1,-7.777833939E-1
7.851601100E0,-2.828462124E-1,4.472050667E-1,-6.316328049E-1
7.856631568E0,2.890825272E-2,1.852726936E-1,-5.492334366E-1
7.861661985E0,2.690522671E-1,6.838798523E-2,-5.998301506E-1
7.866692454E0,4.028291702E-1,8.929681778E-2,-7.310919762E-1
7.871746620E0,5.053865910E-1,2.313146591E-1,-7.424802780E-1
7.876777037E0,6.709952354E-1,2.766604424E-1,-6.728591919E-1
7.881807506E0,7.995886803E-1,3.143301010E-1,-4.821782112E-1
7.886837975E0,9.150533676E-1,4.401259422E-1,-1.563105583E-1
7.891868443E0,1.140821695E0,4.746646881E-1,5.833625793E-2
7.896898912E0,1.136288166E0,3.064708710E-1,1.039853096E-1
7.901900058E0,1.023384809E0,2.571659088E-1,4.085736275E-1
7.906930527E0,1.012600183E0,3.509106636E-1,1.048089504E0
7.911960995E0,1.170227766E0,3.235573769E-1,1.764632225E0
7.916991464E0,1.195445061E0,2.270441055E-1,2.329719067E0
7.922021881E0,1.291078091E0,2.260088921E-1,2.756207466E0
7.927052350E0,1.493046045E0,3.435068130E-1,3.097489834E0
7.932075370E0,1.673295736E0,4.875559807E-1,3.394644260E0
7.937105787E0,1.613543510E0,6.259479523E-1,3.691018581E0
7.942136204E0,1.629702806E0,8.342857361E-1,3.767343998E0
7.947166568E0,1.475398064E0,8.923792839E-1,3.494607925E0
7.952196985E0,9.360933304E-1,1.105015755E0,3.379607201E0
7.957227402E0,7.435433865E-1,1.528026581E0,3.455103874E0
7.962263600E0,7.573273182E-1,1.761773586E0,3.489076614E0
7.967294016E0,5.700078011E-1,1.931529045E0,3.509933949E0
7.972324433E0,4.183034897E-1,2.057085514E0,3.598702908E0
7.977354798E0,1.935088634E-1,2.141442299E0,3.661888599E0
7.982385214E0,6.948208809E-2,2.328623295E0,3.634891033E0
7.987415579E0,-9.753036499E-2,2.460538387E0,3.515507221E0
7.992444537E0,-2.758865356E-1,2.582711220E0,3.418524742E0
7.997474954E0,-3.392903805E-1,2.686000347E0,3.161934853E0
8.002505370E0,-6.249458790E-1,2.622719288E0,2.802737713E0
8.007535735E0,-9.742480516E-1,2.695293427E0,2.558000088E0
8.012566152E0,-1.136210918E0,2.820456028E0,2.412803650E0
8.017596568E0,-1.309444904E0,2.912339211E0,2.385824680E0
8.022628964E0,-1.498915315E0,2.880523205E0,2.419202328E0
8.027659329E0,-1.336397171E0,2.720750332E0,2.464812756E0
8.032689798E0,-8.772226572E-1,2.359244347E0,2.567892075E0
8.037720162E0,-5.645573139E-1,1.743805408E0,2.446017265E0
8.042750579E0,-4.677698612E-1,1.045740128E0,2.110635757E0
8.047780995E0,-2.265536785E-1,4.406108856E-1,2.357709408E0
8.052844068E0,-8.259344101E-2,-1.010532379E-1,2.938274860E0
8.057874433E0,-1.200582981E-1,-5.571546555E-1,3.336878777E0
8.062904850E0,-2.188999653E-1,-9.985361099E-1,3.707964420E0
8.067935266E0,-2.685923576E-1,-1.369694710E0,4.105609894E0
8.072965683E0,-2.975947857E-1,-1.763322830E0,4.325236797E0
8.077996100E0,-2.744278908E-1,-2.085479021E0,4.298878670E0
8.082990787E0,-3.467087746E-1,-2.402426004E0,4.149689674E0
8.088021152E0,-3.538441658E-1,-2.628499031E0,3.772740841E0
8.093051620E0,-3.330671787E-1,-2.714434385E0,3.321545124E0
8.098081985E0,-4.702997208E-1,-2.792176008E0,2.853360176E0
8.103112402E0,-6.789731979E-1,-2.784900665E0,2.200353622E0
8.108142818E0,-8.226289749E-1,-2.723207712E0,1.498619556E0
8.113170995E0,-9.444284439E-1,-2.711306334E0,8.023748398E-1
8.118201412E0,-1.027419806E0,-2.661957741E0,2.183690071E-1
8.123231829E0,-1.131307364E0,-2.543274403E0,-2.733902931E-1
8.128262193E0,-1.222807407E0,-2.445352554E0,-6.640448570E-1
8.133292610E0,-1.350303173E0,-2.379756927E0,-9.537863731E-1
8.138323027E0,-1.459408879E0,-2.357811213E0,-1.243384361E0
8.143361516E0,-1.548625350E0,-2.338133097E0,-1.511425972E0
8.148391933E0,-1.642354369E0,-2.286854267E0,-1.772378922E0
8.153422350E0,-1.674331069E0,-2.205974340E0,-2.095642090E0
8.158452714E0,-1.723788261E0,-2.025887728E0,-2.421434402E0
8.163483131E0,-1.754529119E0,-1.858847141E0,-2.747739315E0
8.168513548E0,-1.746814251E0,-1.754605770E0,-3.036933899E0
8.173535995E0,-1.769183874E0,-1.677181721E0,-3.208149433E0
8.178566412E0,-1.809338331E0,-1.549879551E0,-3.304828167E0
8.183596829E0,-1.917308807E0,-1.370524406E0,-3.341395378E0
8.188627193E0,-1.978344321E0,-1.215706825E0,-3.353767395E0
8.193657610E0,-2.021179438E0,-1.065856457E0,-3.330338478E0
8.198688027E0,-2.029106855E0,-9.017825127E-1,-3.182652950E0
8.203725370E0,-2.057691813E0,-7.640314102E-1,-3.018400669E0
8.208755735E0,-2.090659142E0,-6.763005257E-1,-2.849464893E0
8.213786204E0,-2.109345913E0,-6.048398018E-1,-2.690104485E0
8.218816568E0,-2.104518890E0,-5.540971756E-1,-2.521230698E0
8.223846985E0,-2.076568127E0,-5.404009819E-1,-2.407541752E0
8.228877350E0,-2.033304214E0,-5.609040260E-1,-2.322625160E0
8.233901725E0,-1.953832865E0,-6.271958351E-1,-2.208914757E0
8.238932141E0,-1.852612853E0,-6.885299683E-1,-1.999675274E0
8.243962558E0,-1.774940133E0,-7.906241417E-1,-1.809662819E0
8.248992923E0,-1.670146942E0,-9.359850883E-1,-1.586171150E0
8.254023339E0,-1.504871368E0,-1.108445644E0,-1.345375061E0
8.259053756E0,-1.324409723E0,-1.234293461E0,-1.084562302E0
8.264091516E0,-1.116671562E0,-1.330601215E0,-8.944578171E-1
8.269121881E0,-1.034269094E0,-1.481891632E0,-6.741409302E-1
8.274152350E0,-9.623663425E-1,-1.686214685E0,-4.375147820E-1
8.279182714E0,-9.202289581E-1,-1.807652950E0,-1.937065125E-1
8.284213131E0,-8.771295547E-1,-1.818333387E0,-1.857900620E-2
8.289243495E0,-8.954286575E-1,-1.800330162E0,4.774188995E-2
8.294301777E0,-9.173183441E-1,-1.763585806E0,1.131157875E-1
8.299332141E0,-8.775861263E-1,-1.699890852E0,-1.374721527E-3
8.304362558E0,-8.597385883E-1,-1.640447378E0,-8.751964569E-2
8.309392975E0,-8.534739017E-1,-1.585687637E0,-2.435793877E-1
8.314423391E0,-8.415181637E-1,-1.471333265E0,-3.140749931E-1
8.319453808E0,-8.642754555E-1,-1.319341421E0,-3.948211670E-1
8.324452037E0,-9.092111588E-1,-1.317075253E0,-7.752337456E-1
8.329482454E0,-9.709284306E-1,-1.220062017E0,-1.055905342E0
8.334512870E0,-9.911160469E-1,-1.057059050E0,-1.316457748E0
8.339543235E0,-1.000799656E0,-8.610887527E-1,-1.559752464E0
8.344573652E0,-9.732880592E-1,-7.061598301E-1,-1.774206638E0
8.349604068E0,-9.302074909E-1,-5.533137321E-1,-1.864517689E0
8.354629225E0,-8.600561619E-1,-4.856641293E-1,-1.890804768E0
8.359659641E0,-7.493333817E-1,-4.785244465E-1,-1.944028378E0
8.364690006E0,-5.844645500E-1,-4.406452179E-1,-2.009587765E0
8.369720423E0,-4.422554970E-1,-3.883378506E-1,-2.125910759E0
8.374750839E0,-3.080699444E-1,-3.691637516E-1,-2.207075596E0
8.379781256E0,-1.695103645E-1,-3.326201439E-1,-2.243856430E0
8.384819016E0,-8.340740204E-2,-2.451019287E-1,-2.117012501E0
8.389849433E0,-7.863950729E-2,-1.142230034E-1,-1.972363472E0
8.394879850E0,-1.076087952E-1,2.391767502E-2,-1.816840172E0
8.399910214E0,-1.919555664E-1,2.000641823E-1,-1.616699696E0
8.404940631E0,-2.216293812E-1,4.237940311E-1,-1.405469894E0
8.409971048E0,-1.819298267E-1,6.611266136E-1,-1.245337963E0
8.414995162E0,-9.875869751E-2,8.542623520E-1,-1.102787971E0
8.420025579E0,-8.397722244E-2,1.034213066E0,-9.445023537E-1
8.425055995E0,-9.894180298E-2,1.241359472E0,-6.340804100E-1
8.430086360E0,-7.476234436E-2,1.396623135E0,-3.628029823E-1
8.435116777E0,-7.719945908E-2,1.574095249E0,-1.372241974E-1
8.440147193E0,-5.609250069E-2,1.764012337E0,1.265869141E-1
8.445187766E0,1.203894615E-2,1.861121893E0,4.335374832E-1
8.450218183E0,-4.224038124E-2,1.932796001E0,7.866420746E-1
8.455248600E0,-3.570842743E-2,1.919603348E0,1.229205132E0
8.460278964E0,7.543706894E-2,1.891443014E0,1.754358292E0
8.465309381E0,2.387902737E-1,1.831728697E0,2.240675926E0
8.470339798E0,3.708248138E-1,1.671472073E0,2.605082512E0
8.475363391E0,5.254471302E-1,1.521127701E0,2.864738464E0
8.480393808E0,6.705460548E-1,1.404806852E0,2.905181885E0
8.485424225E0,8.471980095E-1,1.365462542E0,2.812663078E0
8.490454589E0,9.801914692E-1,1.469671726E0,2.747236252E0
8.495485006E0,1.075585604E0,1.573231459E0,2.665537834E0
8.500515423E0,1.144229174E0,1.661391497E0,2.507481575E0
8.505552766E0,1.245017052E0,1.717041254E0,2.409147263E0
8.510583131E0,1.398401499E0,1.696619034E0,2.243356705E0
8.515613600E0,1.593568325E0,1.648008347E0,2.052800179E0
8.520643964E0,1.898430109E0,1.501860380E0,1.841898918E0
8.525674381E0,2.225013971E0,1.294093370E0,1.744406700E0
8.530704798E0,2.490338087E0,1.139788628E0,1.585122108E0
8.535732975E0,2.745404482E0,9.025337696E-1,1.464288712E0
8.540763391E0,2.952169180E0,7.159476280E-1,1.446521759E0
8.545793808E0,3.120011330E0,5.269885063E-1,1.443390846E0
8.550824173E0,3.183783293E0,4.045367241E-1,1.519916534E0
8.555854589E0,3.202641487E0,3.674407005E-1,1.590289116E0
8.560885006E0,3.211491108E0,3.723111153E-1,1.628746033E0
8.565945006E0,3.262199402E0,4.455933571E-1,1.635622025E0
8.570975370E0,3.263263941E0,4.679386616E-1,1.656537056E0
8.576005787E0,3.204277515E0,5.086088181E-1,1.541269302E0
8.581036204E0,3.157294989E0,5.773425102E-1,1.332945824E0
8.586066620E0,3.103390455E0,6.578667164E-1,1.134305000E0
8.591097037E0,3.109774590E0,6.548073292E-1,9.666929245E-1
8.596102662E0,3.210493565E0,6.116745472E-1,7.196350098E-1
8.601133079E0,3.376718521E0,5.764894485E-1,4.913225174E-1
8.606163495E0,3.559012413E0,5.232930183E-1,1.998491287E-1
8.611193860E0,3.672493935E0,5.554215908E-1,-1.459188461E-1
8.616224277E0,3.644937038E0,5.866422653E-1,-5.205259323E-1
8.621254693E0,3.576036930E0,6.081008911E-1,-8.077726364E-1
8.626272089E0,3.438261986E0,6.132707596E-1,-1.130713940E0
8.631302454E0,3.225539684E0,5.669155121E-1,-1.459096432E0
8.636332923E0,3.070579052E0,5.873062611E-1,-1.648039341E0
8.641363287E0,2.935846329E0,6.253523827E-1,-1.753833294E0
8.646393704E0,2.924702644E0,6.508557796E-1,-1.717537403E0
8.651424120E0,2.977433205E0,6.075978279E-1,-1.494593620E0
8.656474902E0,2.993473053E0,5.012774467E-1,-1.147815704E0
8.661505266E0,2.952492714E0,1.866843700E-1,-5.094838142E-1
8.666535683E0,2.958033085E0,-2.232120037E-1,2.367238998E-1
8.671566100E0,2.938523769E0,-7.236938477E-1,9.986600876E-1
8.676596516E0,2.941996574E0,-1.224211216E0,1.744278908E0
8.681626933E0,2.971890450E0,-1.713330269E0,2.395641327E0
8.686670266E0,3.020257950E0,-2.177344561E0,3.039730072E0
8.691700631E0,3.057028770E0,-2.591531754E0,3.675567627E0
8.696731100E0,3.076774597E0,-2.937626839E0,4.203374863E0
8.701761464E0,3.069456816E0,-3.228892803E0,4.679069519E0
8.706791881E0,3.060887337E0,-3.495852709E0,5.098892212E0
8.711822298E0,3.047915697E0,-3.740515947E0,5.432917595E0
8.716823704E0,2.910040379E0,-3.950324535E0,5.596138954E0
8.721854120E0,2.754769087E0,-4.143684387E0,5.620540619E0
8.726884485E0,2.596312046E0,-4.207874775E0,5.528615952E0
8.731914902E0,2.394199610E0,-4.204762936E0,5.306705475E0
8.736945318E0,2.062950850E0,-4.112158298E0,4.866759300E0
8.741975735E0,1.601368904E0,-3.962493658E0,4.335853577E0
8.747038964E0,1.110743523E0,-3.706098318E0,3.620757103E0
8.752069381E0,7.889127731E-1,-3.332709789E0,2.715986252E0
8.757099798E0,5.398917198E-1,-2.904227734E0,1.709251404E0
8.762130214E0,3.156077862E-1,-2.529549599E0,8.122968674E-1
8.767160579E0,6.963992119E-2,-2.104168415E0,-5.506420135E-2
8.772190995E0,-1.968519688E-1,-1.685971498E0,-8.509645462E-1
8.777202037E0,-4.382343292E-1,-1.365864754E0,-1.521408081E0
8.782232454E0,-5.684897900E-1,-1.075330973E0,-2.112473011E0
8.787262818E0,-5.809130669E-1,-8.047854900E-1,-2.567685127E0
8.792293235E0,-4.212126732E-1,-6.382632256E-1,-3.062547684E0
8.797323652E0,-2.883141041E-1,-5.950617790E-1,-3.528617859E0
8.802354068E0,-1.214652061E-1,-5.558683872E-1,-3.775973797E0
8.807372141E0,1.619114876E-1,-6.364831924E-1,-3.606643677E0
8.812402558E0,3.194978237E-1,-8.790643215E-1,-3.570664883E0
8.817432975E0,3.178548813E-1,-1.225188971E0,-3.453070164E0
8.822463391E0,1.370902061E-1,-1.587900639E0,-3.000452042E0
8.827493808E0,-7.940459251E-2,-1.861589432E0,-2.329575539E0
8.832524173E0,-3.794856071E-1,-1.881734371E0,-1.676428318E0
8.837557662E0,-7.592399120E-1,-1.767007828E0,-1.145367622E0
8.842588027E0,-1.132018805E0,-1.587933302E0,-7.144470215E-1
8.847618495E0,-1.384565115E0,-1.331861973E0,-4.189491272E-1
8.852648860E0,-1.697655201E0,-1.146530867E0,-3.324885368E-1
8.857679277E0,-2.289764404E0,-3.807401657E-1,9.380340576E-2
8.862709693E0,-2.655851841E0,1.143875122E-1,4.214401245E-1
8.867764068E0,-2.846952677E0,7.313632965E-2,3.734922409E-1
8.872794433E0,-2.913550138E0,-8.288860321E-2,2.995367050E-1
8.877824850E0,-2.647181988E0,-2.797312737E-1,-1.602458954E-2
8.882855266E0,-2.403427362E0,-3.574185371E-1,-3.390789032E-1
8.887885631E0,-2.240437984E0,-4.630362988E-1,-5.935211182E-1
8.892916100E0,-2.194726944E0,-5.927164555E-1,-8.780426979E-1
8.897912193E0,-2.166806221E0,-6.660895348E-1,-1.118759632E0
8.902942558E0,-2.023096561E0,-7.230315208E-1,-1.399784088E0
8.907972975E0,-1.875577927E0,-7.827405930E-1,-1.675826073E0
8.913003391E0,-1.751316309E0,-8.100841045E-1,-1.884905338E0
8.918033808E0,-1.740222692E0,-9.158425331E-1,-1.995999336E0
8.923064225E0,-1.781327605E0,-9.742515087E-1,-2.119052410E0
8.928104433E0,-1.816071391E0,-9.173038006E-1,-2.172410011E0
8.933134850E0,-1.788914680E0,-8.104972839E-1,-2.189452171E0
8.938165266E0,-1.720947623E0,-7.357265949E-1,-2.409420967E0
8.943195631E0,-1.579727530E0,-6.217532158E-1,-2.619387150E0
8.948226048E0,-1.344882250E0,-5.309226513E-1,-2.855754375E0
8.953256464E0,-1.089663267E0,-6.021733284E-1,-3.073368073E0
8.958288756E0,-8.757088184E-1,-6.488726139E-1,-3.260447502E0
8.963319173E0,-7.483587265E-1,-6.016435623E-1,-3.311817646E0
8.968349589E0,-7.099094391E-1,-5.345540047E-1,-3.402415276E0
8.973380006E0,-7.605855465E-1,-2.604966164E-1,-3.178235531E0
8.978410423E0,-1.024352789E0,-5.451297760E-2,-3.203947067E0
8.983440839E0,-1.075437307E0,1.481776237E-1,-3.537544250E0
8.988487193E0,-8.606193066E-1,3.480839729E-1,-3.265007496E0
8.993517610E0,-7.404553890E-1,4.920296669E-1,-3.118336678E0
8.998548027E0,-6.861114502E-1,4.658632278E-1,-3.059402943E0
9.003578443E0,-6.693770885E-1,4.285407066E-1,-2.784438610E0
9.008608860E0,-6.345624924E-1,4.236626625E-1,-2.391351700E0
9.013639277E0,-5.923333168E-1,4.393954277E-1,-2.147904873E0
9.018651204E0,-4.590754509E-1,4.569292068E-1,-1.817192554E0
9.023681620E0,-3.573036194E-1,4.523854256E-1,-1.351346016E0
9.028711985E0,-2.521998882E-1,4.423146248E-1,-9.031057358E-1
9.033742402E0,-2.157738209E-1,4.862637520E-1,-5.320348740E-1
9.038772870E0,-2.671720982E-1,5.527648926E-1,-5.123710632E-2
9.043803287E0,-2.965054512E-1,9.235639572E-1,1.034780502E0
9.048829537E0,-1.658558846E-2,8.697257042E-1,6.931085587E-1
9.053860006E0,-1.135349274E-1,1.056008339E0,7.598018646E-1
9.058890423E0,-2.674062252E-1,1.306492805E0,1.255905151E0
9.063920839E0,-4.027452469E-1,1.471977234E0,1.361088753E0
9.068951204E0,-4.734938145E-1,1.707943439E0,1.410627365E0
9.073981673E0,-5.272970200E-1,1.908733368E0,1.543407440E0
9.079014745E0,-5.739526749E-1,2.084172249E0,1.539187431E0
9.084045162E0,-6.708014011E-1,2.237393856E0,1.397746086E0
9.089075579E0,-7.406740189E-1,2.398118496E0,1.353019714E0
9.094105995E0,-7.992510796E-1,2.010704517E0,1.361328125E0
9.099136360E0,-7.568020821E-1,1.864009857E0,1.247812271E0
9.104166829E0,-8.158903122E-1,1.988591194E0,1.447416306E0
9.109210318E0,-8.955183029E-1,1.986218929E0,1.261675835E0
9.114240735E0,-6.579766273E-1,1.940839291E0,1.321694374E0
9.119271204E0,-4.819533825E-1,1.901243687E0,1.468871117E0
9.124301620E0,-3.287334442E-1,1.641729355E0,1.523960114E0
9.129331985E0,-1.465530396E-1,1.363243580E0,1.752279282E0
9.134362454E0,-7.349252701E-3,1.053029537E0,2.063181877E0
9.139376620E0,7.201981544E-2,8.085117340E-1,2.425901413E0
9.144407037E0,2.258644104E-1,1.231517792E-1,2.544489861E0
9.149437454E0,6.716110706E-1,-3.629488945E-1,2.469598770E0
9.154467818E0,7.133109570E-1,2.275543213E-1,2.797224998E0
9.159498287E0,4.223468304E-1,5.948500633E-1,3.453936577E0
9.164528704E0,-2.331075668E-1,7.957277298E-1,3.870356560E0
9.169589277E0,-7.336218357E-1,9.606928825E-1,3.992070198E0
9.174619693E0,-9.841924906E-1,1.142050266E0,4.011229515E0
9.179650110E0,-1.153422356E0,1.426962852E0,3.698472977E0
9.184680527E0,-1.217669964E0,1.560484886E0,3.511111259E0
9.189710943E0,-1.358479381E0,1.751051426E0,3.216771126E0
9.194741360E0,-1.532246351E0,2.023519039E0,2.881935120E0
9.199773027E0,-1.633526206E0,2.127612114E0,2.486948967E0
9.204803443E0,-1.641036391E0,2.148516178E0,2.117424965E0
9.209833860E0,-1.602922559E0,2.183117867E0,1.787165642E0
9.214864225E0,-1.596148252E0,2.127524376E0,1.438033104E0
9.219894693E0,-1.596932173E0,2.074100018E0,1.133925438E0
9.224925110E0,-1.625019312E0,1.983586788E0,8.597841263E-1
9.229918912E0,-1.548856974E0,1.814355850E0,5.022754669E-1
9.234949329E0,-1.296621442E0,1.571868896E0,2.954988480E-1
9.239979745E0,-1.140843153E0,1.441512108E0,1.355381012E-1
9.245010162E0,-1.035142422E0,1.263137817E0,-3.798866272E-2
9.250040579E0,-8.156018257E-1,7.954087257E-1,-1.323490143E-1
9.255070995E0,-4.643728733E-1,2.944860458E-1,7.536888123E-3
9.260119641E0,-1.505763531E-1,-1.208682060E-1,3.337631226E-1
9.265150058E0,3.990173340E-2,-4.203095436E-1,7.579412460E-1
9.270180475E0,-3.153324127E-3,-7.218809128E-1,1.345116615E0
9.275210891E0,-9.837818146E-2,-1.057430983E0,1.949929237E0
9.280241308E0,-1.219282150E-1,-1.339393616E0,2.585198402E0
9.285271725E0,-2.472627163E-1,-1.380183458E0,3.280822754E0
9.290290891E0,-4.070448875E-1,-1.537415266E0,3.815476418E0
9.295321308E0,-5.063169003E-1,-1.775880098E0,4.192486763E0
9.300351725E0,-5.146074295E-1,-1.943333864E0,4.541959763E0
9.305382141E0,-5.145518780E-1,-2.088777781E0,4.852912903E0
9.310412558E0,-5.213239193E-1,-2.247176647E0,4.999597549E0
9.315442975E0,-5.066175461E-1,-2.426825047E0,4.954196930E0
9.320470787E0,-4.421486855E-1,-2.604916573E0,4.837270737E0
9.325501204E0,-2.876856327E-1,-3.174490213E0,5.149389267E0
9.330531620E0,-2.816424370E-1,-3.404471636E0,4.366816521E0
9.335562037E0,-2.754144669E-1,-3.010795116E0,3.195228577E0
9.340592454E0,-3.555274010E-2,-2.829629183E0,2.641330719E0
9.345622870E0,-9.293103218E-2,-2.650313854E0,1.943457603E0
9.350660370E0,-3.384430408E-1,-2.477246284E0,1.072549820E0
9.355690787E0,-5.765438080E-1,-2.359734535E0,4.082403183E-1
9.360721204E0,-7.518630028E-1,-2.165282011E0,-2.129669189E-1
9.365751620E0,-9.916098118E-1,-1.914827585E0,-7.817802429E-1
9.370782037E0,-1.333840489E0,-1.569387913E0,-1.466189861E0
9.375812454E0,-1.674891114E0,-1.261820316E0,-2.099490166E0
9.380839954E0,-1.911541700E0,-9.383809566E-1,-2.522181511E0
9.385870370E0,-2.140011311E0,-6.173377037E-1,-2.890424252E0
9.390900787E0,-2.387038708E0,-4.075942039E-1,-3.271819115E0
9.395931204E0,-2.614016533E0,-2.147369385E-1,-3.545063019E0
9.400961620E0,-2.753153086E0,2.672529221E-2,-3.462360859E0
9.405992037E0,-2.787894726E0,8.263254166E-2,-3.449364662E0
9.411018600E0,-2.838859558E0,5.913162231E-2,-3.637696743E0
9.416049016E0,-2.869420290E0,9.580230713E-2,-3.575685501E0
9.421079433E0,-3.001611471E0,1.142315865E-1,-3.271254539E0
9.426109850E0,-3.186191559E0,1.118426323E-1,-2.669157982E0
9.431140266E0,-3.748590469E0,3.085722923E-1,-2.185016632E0
9.436170683E0,-3.910750866E0,3.305397034E-1,-1.002610683E0
9.441207245E0,-3.530295610E0,-1.866106987E-1,-6.322531700E-1
9.446237662E0,-3.053262711E0,-4.743165970E-1,-8.454222679E-1
9.451268079E0,-2.343969584E0,-4.509482384E-1,-8.073878288E-1
9.456298495E0,-1.923276305E0,-2.942194939E-1,-9.133648872E-1
9.461328912E0,-2.170949936E0,-3.757896423E-1,-9.412250519E-1
9.466359329E0,-2.528095007E0,-5.830564499E-1,-7.476038933E-1
9.471412089E0,-2.385787487E0,-7.607669830E-1,-6.836547852E-1
9.476442506E0,-1.863828301E0,-8.998987675E-1,-6.987719536E-1
9.481472923E0,-1.353416681E0,-9.773180485E-1,-7.068738937E-1
9.486503339E0,-9.821135998E-1,-9.962980747E-1,-6.459093094E-1
9.491533756E0,-6.941251755E-1,-1.180256128E0,-6.305465698E-1
9.496564173E0,-4.485559464E-1,-1.445999146E0,-6.029353142E-1
9.501573183E0,-2.645201683E-1,-1.707746983E0,-5.006337166E-1
9.506603600E0,-1.215949059E-1,-1.855470419E0,-5.624976158E-1
9.511634016E0,1.006588936E-1,-1.908590555E0,-7.000555992E-1
9.516664433E0,2.641260624E-1,-1.950867891E0,-8.035588264E-1
9.521694850E0,4.151995182E-1,-1.926909208E0,-9.023790359E-1
9.526725266E0,5.829660892E-1,-1.870373487E0,-9.583902359E-1
9.531750579E0,6.936569214E-1,-1.807998419E0,-9.812302589E-1
9.536780995E0,7.327184677E-1,-1.674793482E0,-8.897380829E-1
9.541811412E0,7.090024948E-1,-1.533091784E0,-8.152937889E-1
9.546841777E0,5.173854828E-1,-1.043278694E0,-8.009352684E-1
9.551872245E0,3.575186729E-1,-7.302050591E-1,-7.821650505E-1
9.556902662E0,4.867725372E-1,-8.795299530E-1,-7.949304581E-1
9.561936933E0,6.986615658E-1,-6.864893436E-1,-6.406459808E-1
9.566967298E0,7.788751125E-1,-4.667224884E-1,-5.274319649E-1
9.571997766E0,7.659940720E-1,-3.856694698E-1,-5.652027130E-1
9.577028183E0,8.015065193E-1,-3.231472969E-1,-5.052628517E-1
9.582058600E0,8.725242615E-1,-2.832200527E-1,-4.099178314E-1
9.587089016E0,1.064336300E0,-3.560943604E-1,-3.198771477E-1
9.592110058E0,1.359833717E0,-5.603291988E-1,-2.424435616E-1
9.597140475E0,1.562595367E0,-4.360165596E-1,-6.051445007E-2
9.602170891E0,1.727608919E0,-4.695320129E-1,4.417037964E-2
9.607201256E0,1.919214964E0,-5.936577320E-1,2.608451843E-1
9.612231725E0,1.930410624E0,-3.151154518E-1,5.155963898E-1
9.617262141E0,1.892705917E0,-2.437965870E-1,8.189487457E-1
9.622295839E0,1.806057453E0,-2.383613586E-2,9.129352570E-1
9.627326204E0,1.772335529E0,1.400661469E-1,9.772281647E-1
9.632356673E0,1.756659985E0,2.732281685E-1,1.083683968E0
9.637387089E0,1.771057367E0,2.624392509E-1,1.196723938E0
9.642417506E0,1.815449953E0,3.369059563E-1,1.436325073E0
9.647447870E0,1.948170185E0,7.659130096E-1,2.159974098E0
9.652507923E0,1.732821465E0,5.682644844E-1,1.380463600E0
9.657538339E0,1.633997679E0,7.685256004E-1,1.266467094E0
9.662568756E0,1.657740831E0,1.269142628E0,1.669899940E0
9.667599120E0,1.513397932E0,1.648434162E0,1.283167839E0
9.672629589E0,1.334758282E0,1.911639690E0,6.542015076E-1
9.677660006E0,1.291108608E0,2.045716763E0,2.533216476E-1
9.682666204E0,1.362036705E0,2.176045895E0,-1.288290024E-1
9.687696620E0,1.513846397E0,2.348330498E0,-2.984881401E-1
9.692727037E0,1.594625473E0,2.348817348E0,-6.414542198E-1
9.697757454E0,1.696690798E0,2.276089668E0,-1.007486820E0
9.702787870E0,1.857159853E0,2.305373669E0,-1.198788643E0
9.707818287E0,2.003961086E0,2.174256802E0,-1.292537212E0
9.712841204E0,2.148202658E0,1.895795345E0,-1.229180813E0
9.717871620E0,2.236659050E0,1.764794350E0,-1.243342876E0
9.722902037E0,2.149337053E0,1.647983074E0,-1.208517551E0
9.727932454E0,2.036460161E0,1.466259003E0,-1.119619370E0
9.732962870E0,1.942962408E0,1.318405628E0,-1.029548168E0
9.737993287E0,1.937643290E0,1.368697166E0,-4.758586884E-1
9.743029173E0,1.665654898E0,1.178491116E0,-5.734124184E-1
9.748059589E0,1.477110863E0,1.319889069E0,-1.092038155E-1
9.753090006E0,1.151091337E0,1.551061630E0,2.783918381E-1
9.758120423E0,8.658194542E-1,1.640380383E0,4.651904106E-1
9.763150839E0,8.265669346E-1,1.634187698E0,7.214045525E-1
9.768181256E0,9.698436260E-1,1.589834690E0,1.157507420E0
9.773215787E0,1.165336609E0,1.489533901E0,1.401208401E0
9.778246204E0,1.373157024E0,1.501860619E0,1.534743309E0
9.783276620E0,1.482298613E0,1.615797520E0,1.427042961E0
9.788307037E0,1.552318335E0,1.708024502E0,1.310529232E0
9.793337454E0,1.633821964E0,1.657572746E0,9.697389603E-1
9.798367870E0,1.795014620E0,1.566605091E0,6.599497795E-1
9.803391256E0,2.071384430E0,1.460767746E0,5.050816536E-1
9.808421620E0,2.353213072E0,1.375113964E0,3.355007172E-1
9.813452089E0,2.566200733E0,1.194962978E0,1.200809479E-1
9.818482454E0,2.768247366E0,1.001997948E0,-2.132291794E-1
9.823512923E0,2.962468386E0,7.990837097E-1,-4.855461121E-1
9.828543287E0,3.168303728E0,5.483150482E-1,-7.452244759E-1
9.833595735E0,3.315830231E0,3.750247955E-1,-1.045326233E0
9.838626152E0,3.333325624E0,2.259058952E-1,-1.561967373E0
9.843656568E0,3.303428650E0,9.509277344E-2,-2.045493603E0
9.848686985E0,3.196195841E0,7.506752014E-2,-2.184629917E0
9.853717402E0,2.939349413E0,1.824426651E-2,-2.150270462E0
9.858747818E0,2.505476236E0,-4.329872131E-2,-2.134277344E0
9.863762037E0,2.104809284E0,-1.610822678E-1,-2.192476749E0
9.868792402E0,1.873651266E0,-2.747101784E-1,-2.141111851E0
9.873822870E0,1.823515654E0,-3.403000832E-1,-1.847020149E0
9.878853287E0,1.781400204E0,-4.457912445E-1,-1.363458633E0
9.883883704E0,1.676997185E0,-6.722173691E-1,-9.009084702E-1
9.888914120E0,1.550518751E0,-1.048236370E0,-3.607840538E-1
9.893937454E0,1.475496054E0,-1.342208385E0,2.147922516E-1
9.898967870E0,1.499878645E0,-1.710826874E0,7.574119568E-1
9.903998235E0,1.528439760E0,-2.102964401E0,1.335357189E0
9.909028652E0,1.556482553E0,-2.374387503E0,1.931055546E0
9.914059120E0,1.654625177E0,-2.378710270E0,2.508448124E0
9.919089537E0,7.246100903E-1,-2.211678028E0,1.903418064E0
9.924120475E0,2.351009846E-1,-3.048305273E0,1.312611103E0
9.929150839E0,4.330565929E-1,-3.207968950E0,2.124216080E0
9.934181308E0,5.807411671E-1,-3.320761681E0,2.752221584E0
9.939211725E0,4.220979214E-1,-3.600970507E0,3.025481224E0
9.944242141E0,7.664465904E-2,-3.778830767E0,2.955770016E0
9.949272558E0,-2.229146957E-1,-3.819924355E0,2.718793392E0
9.954299120E0,-4.278244972E-1,-3.613326073E0,2.537659168E0
9.959329537E0,-8.660616875E-1,-2.801897764E0,2.171617985E0
9.964359954E0,-1.147109032E0,-2.719002247E0,1.296021461E0
9.969390370E0,-9.295916557E-1,-2.520837784E0,1.241625786E0
9.974420787E0,-1.140133858E0,-1.613021851E0,9.757027626E-1
9.979451204E0,-1.319891691E0,-1.263679504E0,9.724569321E-2
9.984484954E0,-1.353387833E0,-8.678040504E-1,-6.082186699E-1
9.989515318E0,-1.323641539E0,-5.147004128E-1,-1.247796059E0
9.994545787E0,-1.232736111E0,-2.721080780E-1,-1.851630211E0
9.999576152E0,-1.213953018E0,-1.954441071E-1,-2.416768551E0
1.000460657E1,-1.242740393E0,-8.414316177E-2,-2.863575459E0
1.000963698E1,-1.330943584E0,-1.819229126E-2,-3.131177425E0
1.001466860E1,-1.479272723E0,8.783817291E-3,-3.369068623E0
1.001969896E1,-1.626172781E0,5.559682846E-2,-3.508730173E0
1.002472943E1,-1.690332174E0,8.952331543E-2,-3.606009245E0
1.002975980E1,-1.645410657E0,4.227781296E-2,-3.542314291E0
1.003479021E1,-1.442685485E0,-1.578741074E-1,-3.268008709E0
1.003982063E1,-1.155767202E0,-4.349389076E-1,-2.792594910E0
1.004485433E1,-1.007394552E0,-7.852559090E-1,-2.117574215E0
1.004988474E1,-1.024887562E0,-1.109348297E0,-1.437874317E0
1.005491516E1,-1.156797886E0,-1.374905586E0,-8.475832939E-1
1.005994553E1,-1.270323992E0,-1.508931160E0,-3.020281792E-1
1.006497594E1,-1.433560491E0,-1.605896473E0,9.962749481E-2
1.007000636E1,-1.623027921E0,-1.616693974E0,3.849315643E-1
1.007503766E1,-1.767114997E0,-1.640338421E0,6.480126381E-1
1.008006808E1,-1.827802658E0,-1.627254963E0,8.344321251E-1
1.008509850E1,-1.865452647E0,-1.673698425E0,9.400115013E-1
1.009012886E1,-1.837582111E0,-1.660403728E0,9.533810616E-1
1.009515928E1,-1.821108937E0,-1.602291107E0,7.985200882E-1
1.010018969E1,-1.767843127E0,-1.571187496E0,4.587097168E-1
1.010521751E1,-1.662480354E0,-1.461316586E0,8.891201019E-2
1.011024792E1,-1.561493158E0,-1.482894897E0,-2.493686676E-1
1.011527834E1,-1.435441971E0,-1.487008095E0,-5.687413216E-1
1.012030870E1,-1.322222948E0,-1.483100414E0,-8.599390984E-1
1.012533912E1,-1.288334489E0,-1.430222034E0,-1.006171227E0
1.013036954E1,-1.219062805E0,-1.311297894E0,-1.129836082E0
1.013540584E1,-1.116542816E0,-1.176448822E0,-1.314974308E0
1.014043626E1,-1.001794100E0,-1.047058105E0,-1.494868755E0
1.014546667E1,-8.692326546E-1,-9.849920273E-1,-1.729918957E0
1.015049704E1,-6.653866768E-1,-1.011810303E0,-1.893526077E0
1.015552745E1,-4.707829952E-1,-1.005323887E0,-2.007730961E0
1.016055787E1,-3.043737411E-1,-9.489030838E-1,-1.984092236E0
1.016561094E1,-2.120044231E-1,-8.907728195E-1,-2.025738239E0
1.017064131E1,-1.672551632E-1,-8.311653137E-1,-2.048678398E0
1.017567172E1,-2.344744205E-1,-7.531480789E-1,-1.971800327E0
1.018070214E1,-2.411894798E-1,-6.184597015E-1,-1.888557911E0
1.018573256E1,-3.220093250E-1,-5.253725052E-1,-1.674228191E0
1.019076298E1,-4.296362400E-1,-4.309654236E-1,-1.512777805E0
1.019576245E1,-5.029659271E-1,-3.327932358E-1,-1.379791737E0
1.020079287E1,-5.521264076E-1,-2.381582260E-1,-1.301251411E0
1.020582329E1,-5.753126144E-1,-1.712851524E-1,-1.262283325E0
